workerid,button_rt,group_size,thickness,round,correct,correct_tangram,gameId,selected,text,trial_index,rt_sec,condition,trial_order
914,24997,2_player,thick,round_1,0,K,rshQ6tYBS22PNQeTe,E,"[{'role': 'speaker', 'text': 'facing rightwards, like a head with an additional diamond on top, hands in a prayer pose', 'playerId': 'MgJ37EC6d5m8bs8h7'}, {'role': 'speaker', 'text': ""it's the only one with two diamonds for a head"", 'playerId': 'MgJ37EC6d5m8bs8h7'}]",3,24.997,2_thick,1
914,13348,2_player,thin,round_6,0,A,BP9jqaXgDcqoupu9X,K,"[{'role': 'speaker', 'text': '* The guy with the head facing right, and the legs facing the other way One of the legs lifted', 'playerId': '6FJS2spM98nBBPJdc'}]",5,13.348,2_thin,2
914,5525,2_player,thick,round_6,1,I,PF2Wo9cXvN4eYEgQm,I,"[{'role': 'speaker', 'text': 'one foot down one foot out behind arms outstretched facing left', 'playerId': '8Dpsmcfr85fEhvbo5'}]",7,5.525,2_thick,3
914,10356,6_player,thin,round_1,1,G,yf4vLYMpH9j84z98K,G,"[{'role': 'speaker', 'text': 'Lots of shapes on this one Kind of looks like someone lounging with a hand behind them', 'playerId': 'fRQb9DJBabAZCcAjY'}]",9,10.356,6_thin,4
914,5815,6_player,thick,round_6,0,A,2p26ok9CFsRGJGceh,E,"[{'role': 'speaker', 'text': 'Happy Bunny 5 5 This one is sad lizard with flag', 'playerId': 'wcqH3MeeC8KicnQmh'}]",11,5.815,6_thick,5
914,8234,6_player,thin,round_6,0,E,XbZk9j8EZFLzxLNGC,L,"[{'role': 'speaker', 'text': 'person with a head dress sitting facing right', 'playerId': 'xAo494dnYpcdA5GYh'}]",13,8.234,6_thin,6
914,9461,2_player,thick,round_6,0,B,ReHEztHvdLg42SEGu,K,"[{'role': 'speaker', 'text': 'person kneeling COMPLETELY FLAT ON THE GROUND two pointed triangles on its side', 'playerId': 'dRD2qauYBz3is79vB'}, {'role': 'speaker', 'text': 'wearing a shoe', 'playerId': 'dRD2qauYBz3is79vB'}]",15,9.461,2_thick,7
914,7796,6_player,thick,round_6,0,L,XPDgovNnwsyppFmAf,B,"[{'role': 'speaker', 'text': 'half crouched', 'playerId': 'gwt4PNWvsk9BAK8Ed'}]",17,7.796,6_thick,8
914,12609,6_player,thin,round_1,0,K,dh6tkArXHwNp8Aru4,D,"[{'role': 'speaker', 'text': 'KNEELING UP WITH HANDS OUT', 'playerId': 'bPKaFxCT9xHgbCHWZ'}, {'role': 'speaker', 'text': 'STRAIGHT BACK', 'playerId': 'bPKaFxCT9xHgbCHWZ'}, {'role': 'speaker', 'text': 'FEET POINTING UP', 'playerId': 'bPKaFxCT9xHgbCHWZ'}]",19,12.609,6_thin,9
914,20857,2_player,thin,round_1,1,G,9wbjtnF8xe5ymzikg,G,"[{'role': 'speaker', 'text': 'This is very tricky one second', 'playerId': '3R3qpxKrLougMSfGd'}, {'role': 'speaker', 'text': 'The head is tilting backwards towards the left side', 'playerId': '3R3qpxKrLougMSfGd'}, {'role': 'speaker', 'text': 'The body is like a inflated comma', 'playerId': '3R3qpxKrLougMSfGd'}, {'role': 'speaker', 'text': 'The bottom half is like a comma shape', 'playerId': '3R3qpxKrLougMSfGd'}, {'role': 'speaker', 'text': 'It resembles a horse lifting its front legs', 'playerId': '3R3qpxKrLougMSfGd'}]",21,20.857,2_thin,10
914,17856,6_player,thick,round_1,1,A,vHRdxbuskY9MXxf4j,A,"[{'role': 'listener', 'text': ""That's what i'm talking about"", 'playerId': 'diPZJB3aPyKz8PQGT'}, {'role': 'speaker', 'text': ""this one looks like he's walking, facing left with one foot up"", 'playerId': 'RSQku3ckThbYxojeR'}, {'role': 'listener', 'text': 'almost like the zombie walk, and a weird triangle shape at the top left', 'playerId': 'diPZJB3aPyKz8PQGT'}]",23,17.856,6_thick,11
914,8145,6_player,thick,round_1,0,L,ZJwZxaeBDE6xqPFAv,J,"[{'role': 'speaker', 'text': 'This looks like someone kneeling, holding triangle arms to OUR right, kneeling down, their square head', 'playerId': 'e9g86kP6Wh4MDo4hN'}, {'role': 'speaker', 'text': 'By arms I mean ONE sort of triangle pointing rightward', 'playerId': 'e9g86kP6Wh4MDo4hN'}, {'role': 'speaker', 'text': 'The bottom makes a sort of parallelogram +', 'playerId': 'e9g86kP6Wh4MDo4hN'}]",25,8.145,6_thick,12
914,3701,2_player,thick,round_1,1,E,4bDDi23d6D8SJkrgQ,E,"[{'role': 'speaker', 'text': 'like a bunny with two big triangle ears', 'playerId': 'P5nFedWBmEvAmd8CD'}, {'role': 'speaker', 'text': 'the body is facing to the right', 'playerId': 'P5nFedWBmEvAmd8CD'}]",27,3.701,2_thick,13
914,5228,6_player,thin,round_1,0,L,7Djg3JQnctbBGbR6q,D,"[{'role': 'speaker', 'text': 'The person is kneeling holding a plate and her feet do not turn up', 'playerId': 'Ef4nkLWp4LNYMmKPA'}]",29,5.228,6_thin,14
914,9742,2_player,thin,round_6,0,B,Aq5QevmQACnfqeuj4,K,"[{'role': 'speaker', 'text': 'It is kneeling facing the right with boths hands in the air', 'playerId': 'QWnE4mnYS4vBNFQdu'}]",31,9.742,2_thin,15
914,3607,2_player,thick,round_6,0,K,voSMQaG9H4nC4jy32,I,"[{'role': 'speaker', 'text': 'kneeling down with plate out', 'playerId': 'xCczn7ZDHtYRWQE6W'}, {'role': 'speaker', 'text': 'with tail', 'playerId': 'xCczn7ZDHtYRWQE6W'}]",33,3.607,2_thick,16
914,4895,6_player,thick,round_1,1,E,QeHxf8rJXN8MCSKYR,E,"[{'role': 'speaker', 'text': 'this is the one that appears to have a square head with two triangles on top and looks as though it is sitting on the floor facing to the right with knees bent up', 'playerId': 'NxLjuiDi5cuFnLeTt'}]",35,4.895,6_thick,17
914,8499,6_player,thick,round_6,0,D,2p26ok9CFsRGJGceh,B,"[{'role': 'speaker', 'text': ""5 5 It's the priest again giving his sermon to people on left"", 'playerId': 'wcqH3MeeC8KicnQmh'}]",37,8.499,6_thick,18
914,10502,6_player,thick,round_1,0,B,AM32EpWzbjLmWKqQX,A,"[{'role': 'speaker', 'text': 'Person on their knees, hands outstretched, feet to their left', 'playerId': 'ipD6BWixZJPo2Pigc'}, {'role': 'speaker', 'text': 'Triangle almost separated from the body on the right side', 'playerId': 'ipD6BWixZJPo2Pigc'}, {'role': 'speaker', 'text': 'Seperated', 'playerId': 'ipD6BWixZJPo2Pigc'}]",39,10.502,6_thick,19
914,7606,2_player,thin,round_6,0,E,3yh8YmunGyJ3aQmWd,B,"[{'role': 'speaker', 'text': 'box on a hill', 'playerId': 'jYjCgmiAtd4SvCC8t'}]",41,7.606,2_thin,20
914,6167,6_player,thin,round_6,1,H,9AyhLQe5bddaES2Af,H,"[{'role': 'speaker', 'text': 'no limbs can be seen other than one leg kicking out slightly from the right', 'playerId': 'FrQn83bw5h6sWkhYE'}, {'role': 'speaker', 'text': 'no body limbs!', 'playerId': 'FrQn83bw5h6sWkhYE'}]",43,6.167,6_thin,21
914,12542,2_player,thin,round_6,0,L,byWRCj2bTz2Guefog,B,"[{'role': 'speaker', 'text': 'person is crouched, just a right arm, looking right', 'playerId': 'XJrMGAcWFb5rBFLwQ'}]",45,12.542,2_thin,22
914,9921,6_player,thin,round_1,0,K,Nh8nE8Qa4C3BkbhD6,G,"[{'role': 'speaker', 'text': 'appears to be kneeling, , head straight,', 'playerId': 'kGFgXyvd4DGKWJytw'}, {'role': 'speaker', 'text': 'i get the sense they are in prayer position looking to the right', 'playerId': 'kGFgXyvd4DGKWJytw'}, {'role': 'speaker', 'text': 'triangle Up on the back', 'playerId': 'kGFgXyvd4DGKWJytw'}]",47,9.921,6_thin,23
914,4149,2_player,thick,round_6,1,J,voSMQaG9H4nC4jy32,J,"[{'role': 'speaker', 'text': 'square guy', 'playerId': 'xCczn7ZDHtYRWQE6W'}]",49,4.149,2_thick,24
914,5710,6_player,thin,round_6,1,C,hycXgPznSi3hzjcfX,C,"[{'role': 'speaker', 'text': 'arms up, slanted man', 'playerId': 'TWXWnAChyvw94LtaH'}]",51,5.71,6_thin,25
914,4088,2_player,thin,round_1,1,I,byWRCj2bTz2Guefog,I,"[{'role': 'speaker', 'text': 'this looks like a ballet dancer with a leg stretched back, but the leg is a triangle and the head is a square', 'playerId': 'AXLc5WsF9dMwS482A'}, {'role': 'speaker', 'text': 'the chest is two triangles on the left', 'playerId': 'AXLc5WsF9dMwS482A'}]",53,4.088,2_thin,26
914,6532,2_player,thick,round_6,0,J,8rdFCKG2CvuTrLnAM,H,"[{'role': 'speaker', 'text': 'shape with straight left side', 'playerId': 'sXCiFPWdDG3oRZb4u'}]",55,6.532,2_thick,27
914,6495,6_player,thick,round_6,1,F,AM32EpWzbjLmWKqQX,F,"[{'role': 'speaker', 'text': 'Person sitting again, legs out to the left, head bent to the left', 'playerId': 'ipD6BWixZJPo2Pigc'}]",57,6.495,6_thick,28
914,16486,6_player,thin,round_1,1,L,GfdodQMJHhNodveqQ,L,"[{'role': 'speaker', 'text': 'select the figure which is pointing to the right and looks like it is halfway to kneeling down', 'playerId': 'mJoMeCNLNBvXsdrNr'}]",59,16.486,6_thin,29
914,2764,6_player,thick,round_1,1,I,xxh6EZ5ESMvTDboLx,I,"[{'role': 'speaker', 'text': 'looks like a figure skater foot behind to the right', 'playerId': 'ETWC7GktmiQ8Fmtef'}]",61,2.764,6_thick,30
914,5858,2_player,thick,round_1,0,G,TswNa6hfiGwkWHMgB,B,"[{'role': 'speaker', 'text': 'Dancing girl with long train on the back of dress', 'playerId': 'BCjiqev2Kt7Lze3nQ'}]",63,5.858,2_thick,31
914,7963,2_player,thick,round_6,1,D,XDoay5WJnvL23rCdz,D,"[{'role': 'speaker', 'text': 'standing woman in a kimono facing our left and droopy sleeves', 'playerId': '8HW5HPk6BcWhLNEud'}]",65,7.963,2_thick,32
914,2694,2_player,thin,round_1,1,E,6ZtMrReWRYFFydpHK,E,"[{'role': 'speaker', 'text': 'Looks a little like a rabbit sitting on the floor facing toward the right hand side Two triangles on a diamond atop another triangle', 'playerId': 'D3HFDGENYCiG9LDJf'}]",67,2.694,2_thin,33
914,3484,6_player,thin,round_6,1,I,PppCQXs7SSfgS4Ygj,I,"[{'role': 'speaker', 'text': 'two arms pointing left, one leg kicked out to the right, standing on one leg', 'playerId': 'fBDb4v9G46e3McF8B'}]",69,3.484,6_thin,34
914,4149,6_player,thick,round_6,0,D,5wn4MiopXyfXuTxG9,H,"[{'role': 'speaker', 'text': 'This figure is completely upright with the squarish limb to the front', 'playerId': 'HJoHFMvp6qPSD2pXk'}]",71,4.149,6_thick,35
914,14763,6_player,thin,round_6,0,J,PDtkH4fTndXzR4oNt,D,"[{'role': 'speaker', 'text': 'long straight bit on the right, candle bit on the left', 'playerId': 'aYEneuu2qPkdL2PeC'}, {'role': 'speaker', 'text': 'diamond on the top', 'playerId': 'aYEneuu2qPkdL2PeC'}, {'role': 'speaker', 'text': 'looks like a candle', 'playerId': 'aYEneuu2qPkdL2PeC'}, {'role': 'speaker', 'text': 'long straight on the left hand side', 'playerId': 'aYEneuu2qPkdL2PeC'}]",73,14.763,6_thin,36
914,3479,6_player,thick,round_6,1,F,d3pirdbXLaHdgxR9t,F,"[{'role': 'speaker', 'text': 'sitting on your bum', 'playerId': 'YvaYGp3i8g88dxJR7'}]",75,3.479,6_thick,37
914,6036,6_player,thin,round_1,0,K,dG226KpEbdnXwkPGx,L,"[{'role': 'speaker', 'text': 'Looks like the image is bowing down', 'playerId': 'MRy5sG4H9RcBMfW2b'}, {'role': 'speaker', 'text': 'Holding a bowl', 'playerId': 'MRy5sG4H9RcBMfW2b'}]",77,6.036,6_thin,38
914,1736,2_player,thin,round_1,0,L,GGz5Zb58tHpG8X5z7,K,"[{'role': 'speaker', 'text': 'kneeling', 'playerId': 'HfeucCnhyMQZNxJYH'}]",79,1.736,2_thin,39
914,3950,6_player,thick,round_1,1,F,C6NxFhmDQvNgE2P68,F,"[{'role': 'speaker', 'text': 'Sitting down, facing left, knees are pulled up halfway', 'playerId': 'CsbCqNrAHc5ueS2rd'}]",81,3.95,6_thick,40
914,11718,6_player,thick,round_1,1,G,QkKavPsKXNH5uJzrs,G,"[{'role': 'speaker', 'text': 'this one almost looks like a person dancing', 'playerId': 'ySkkTvw6MWq2jN8sB'}, {'role': 'speaker', 'text': 'with a large object being pulled behind them', 'playerId': 'ySkkTvw6MWq2jN8sB'}, {'role': 'speaker', 'text': 'overall the design kind of makes a letter ""J""', 'playerId': 'ySkkTvw6MWq2jN8sB'}, {'role': 'speaker', 'text': 'it does NOT look like a person sitting', 'playerId': 'ySkkTvw6MWq2jN8sB'}]",83,11.718,6_thick,41
914,2487,2_player,thin,round_6,1,I,c3627RTtA7SfM2g6N,I,"[{'role': 'speaker', 'text': 'karate kick behind', 'playerId': 'AYaqScZTLQv5T9cvK'}]",85,2.487,2_thin,42
914,39826,6_player,thin,round_1,0,G,2gkxKTcPdQews5qTX,E,"[{'role': 'speaker', 'text': 'think of a shoe the heel is a triangle but is not touching the ground there is a square ate the top left', 'playerId': 'yN5pFmHQdR2zzStyt'}]",87,39.826,6_thin,43
914,7199,2_player,thick,round_6,0,K,rshQ6tYBS22PNQeTe,E,"[{'role': 'speaker', 'text': 'two diamonds', 'playerId': 'MgJ37EC6d5m8bs8h7'}]",89,7.199,2_thick,44
914,6491,2_player,thin,round_6,0,E,oJFB5dkDNtRxZNzec,A,"[{'role': 'speaker', 'text': 'hat', 'playerId': '4AsFJzDE4jwjApMjQ'}]",91,6.491,2_thin,45
914,6823,2_player,thick,round_1,0,C,NdrBpKKdJinL4P9pF,G,"[{'role': 'speaker', 'text': 'triangle between two rhombuses and on top of another', 'playerId': 'fzPLirZgYXeqXcey7'}, {'role': 'speaker', 'text': 'looks like a guy leaning to the left with his arms up', 'playerId': 'fzPLirZgYXeqXcey7'}]",93,6.823,2_thick,46
914,3010,6_player,thick,round_6,1,F,idfdowLZKpkzB8ypa,F,"[{'role': 'speaker', 'text': 'sitting on floor with knees bent upwards', 'playerId': 'hWLbCy7ApJfJBtYmh'}]",95,3.01,6_thick,47
914,3727,6_player,thick,round_6,1,A,FQmZmJts5MsgBFKCs,A,"[{'role': 'speaker', 'text': 'zombie', 'playerId': '4bzGCtgSy2NNk9Q5m'}]",97,3.727,6_thick,48
914,8996,6_player,thin,round_6,1,B,iWDET8rLPYMj9RE39,B,"[{'role': 'speaker', 'text': 'triangle bottom left', 'playerId': 'yS4bdq7buoNJWwCGR'}, {'role': 'speaker', 'text': '2 triangles under diamond head', 'playerId': 'yS4bdq7buoNJWwCGR'}]",99,8.996,6_thin,49
914,2576,2_player,thick,round_1,0,A,RAnND9hdveF9KAQce,I,"[{'role': 'speaker', 'text': 'their right foot is up and the other is on the floor', 'playerId': '34Br2mxZXWB7Z8veK'}]",101,2.576,2_thick,50
914,8656,2_player,thin,round_1,0,K,BP9jqaXgDcqoupu9X,L,"[{'role': 'speaker', 'text': 'looks like a woman sat on a seat, holding a triangle on the right side, facing the right side', 'playerId': 'MjgM5qp98eAX4zuZL'}]",103,8.656,2_thin,51
914,4715,6_player,thin,round_6,0,A,vb35TJcSHPpKxAzJo,I,"[{'role': 'speaker', 'text': 'About to throw a baseball one leg in front of the other to the right', 'playerId': 'FZwaqKfJFzuRG7WoT'}, {'role': 'speaker', 'text': 'Square head due to the angle', 'playerId': 'FZwaqKfJFzuRG7WoT'}]",105,4.715,6_thin,52
914,3925,2_player,thick,round_6,0,J,htub6itv8siAtQv22,G,"[{'role': 'speaker', 'text': 'straight flat edge left', 'playerId': 'HvkLtechHtpsjT9rJ'}]",107,3.925,2_thick,53
914,7763,2_player,thin,round_1,0,K,53uTmg2fquiNWgaK9,L,"[{'role': 'speaker', 'text': 'kneeling to the right', 'playerId': '8TCXBa5TcMjPDEKv6'}, {'role': 'speaker', 'text': 'diamond head in center', 'playerId': '8TCXBa5TcMjPDEKv6'}]",109,7.763,2_thin,54
914,15249,2_player,thin,round_6,0,I,HQCyESfw7Bwg5LM3Q,A,"[{'role': 'speaker', 'text': 'standing one left, other leg stretched to the right, head facing left with arms out to the left', 'playerId': 'hqLm2SFGSXpKH7smw'}]",111,15.249,2_thin,55
914,17365,2_player,thick,round_1,1,H,ReHEztHvdLg42SEGu,H,"[{'role': 'speaker', 'text': ""this one looks like it's sitting with its legs crossed off to the side"", 'playerId': 'dRD2qauYBz3is79vB'}, {'role': 'listener', 'text': 'Legs facing left or right', 'playerId': 'Pguc8sNiz63gYASuy'}, {'role': 'speaker', 'text': 'could be facing us, or facing away from us', 'playerId': 'dRD2qauYBz3is79vB'}, {'role': 'speaker', 'text': 'right!', 'playerId': 'dRD2qauYBz3is79vB'}]",113,17.365,2_thick,56
914,3651,2_player,thin,round_1,1,I,HQCyESfw7Bwg5LM3Q,I,"[{'role': 'speaker', 'text': 'person on one leg facing the left', 'playerId': 'ijqA9EF3MtMyzT6Ts'}]",115,3.651,2_thin,57
914,5369,6_player,thin,round_1,1,E,xSm8KNffud9xrhzXt,E,"[{'role': 'speaker', 'text': 'mountain with 2 peaks at bottom', 'playerId': 'pBWF9Yg8Gkrzgz6ZZ'}, {'role': 'speaker', 'text': 'square on top and then 2 triangles on very top', 'playerId': 'pBWF9Yg8Gkrzgz6ZZ'}]",117,5.369,6_thin,58
914,5888,2_player,thin,round_1,1,C,tac8f7dPdRJLBrSMh,C,"[{'role': 'speaker', 'text': 'I am falling backwards and slightly sideways and have both my arms up', 'playerId': '6WniY398mGwu8Gq6w'}]",119,5.888,2_thin,59
914,5032,2_player,thin,round_6,1,D,22dyGMRgestp8u5Lc,D,"[{'role': 'speaker', 'text': 'priest standing up, facing left', 'playerId': 'zbNWfn7CxR9SSytWA'}]",121,5.032,2_thin,60
914,5218,2_player,thick,round_1,0,B,pdC8wpWApxQxy97ei,E,"[{'role': 'speaker', 'text': 'mess of shapes', 'playerId': 'epgkyGmaqtcw2wDNc'}, {'role': 'speaker', 'text': 'small triangle at bottom left', 'playerId': 'epgkyGmaqtcw2wDNc'}, {'role': 'speaker', 'text': 'two triangles on top of base', 'playerId': 'epgkyGmaqtcw2wDNc'}]",123,5.218,2_thick,61
914,5406,6_player,thin,round_6,0,L,AdiA5JEZBKJ4F5r4i,K,"[{'role': 'speaker', 'text': 'Kneeling down slightly, facing right Arms pointing right', 'playerId': 'DnsCNZv6g42s9Ruci'}, {'role': 'speaker', 'text': 'Arms pointing right, kneeling down', 'playerId': 'DnsCNZv6g42s9Ruci'}]",125,5.406,6_thin,62
914,2052,2_player,thick,round_1,1,I,39vsQAqXRy5pjDrHx,I,"[{'role': 'speaker', 'text': 'skiing', 'playerId': 'oeYEj7xymG4SwYdqb'}]",127,2.052,2_thick,63
914,6674,6_player,thick,round_1,0,G,BPDJ8DfY2oJw6jGZn,L,"[{'role': 'speaker', 'text': 'one that is prostrating', 'playerId': 'FtpmWjRBf7ifYWhyL'}]",129,6.674,6_thick,64
871,12597,2_player,thick,round_1,0,E,3LD6SkQZcPSYXHE9W,F,"[{'role': 'speaker', 'text': 'person looking down, sitting with knees bent upwards', 'playerId': 'LyQyeWbntRWk8ms69'}]",3,12.597,2_thick,1
871,23784,2_player,thick,round_1,1,A,XJWjbBteCLNDAtjaR,A,"[{'role': 'speaker', 'text': 'Bear with flag', 'playerId': 'REH8sf5fLW24xLJLe'}, {'role': 'speaker', 'text': 'Bear walking holding flag behind', 'playerId': 'REH8sf5fLW24xLJLe'}, {'role': 'listener', 'text': 'balancing on one leg', 'playerId': 'htbtimGcD7TSwfbR3'}]",5,23.784,2_thick,2
871,11250,6_player,thick,round_1,1,H,yuahmMCJwB5LLGYHB,H,"[{'role': 'speaker', 'text': 'it looks like a block for a body and tilted square for a head with no visible legs or arms', 'playerId': 'WLChjCXuws93NcRaQ'}]",7,11.25,6_thick,3
871,12497,6_player,thin,round_1,1,G,s3guGBwvgJRQvf9vF,G,"[{'role': 'speaker', 'text': 'a seal standing on its belly balancing two objects on its nose', 'playerId': 'xaG49m2wuoEz9eEcw'}]",9,12.497,6_thin,4
871,9485,6_player,thick,round_6,0,K,Cd78pF39goegJ3bsA,C,"[{'role': 'speaker', 'text': 'person kneeling, arms outstretched, facing the right', 'playerId': 'YA854Kq94JdiomiiP'}]",11,9.485,6_thick,5
871,10604,2_player,thick,round_6,1,A,cCSd3v7a6AH8fHsJE,A,"[{'role': 'speaker', 'text': 'monster', 'playerId': 'Dmv2wGZJEid5oXz3M'}]",13,10.604,2_thick,6
871,6185,2_player,thin,round_6,1,E,jogDrQkpEKFNKDtfk,E,"[{'role': 'speaker', 'text': 'two triangles on head', 'playerId': '5gj4Z6SqKe5ZjzcBf'}]",15,6.185,2_thin,7
871,5267,6_player,thin,round_6,1,C,78pdRXrYqcWKaNMsA,C,"[{'role': 'speaker', 'text': 'arms in air wide open', 'playerId': 'i7JHRaSobHRNAbiut'}]",17,5.267,6_thin,8
871,14766,6_player,thick,round_1,1,I,awMBFij9Yo8w2nA5K,I,"[{'role': 'speaker', 'text': 'It kinda looks like someone standing on one leg leaning to the left with one leg sticking out behind them Shape description to follow', 'playerId': 'tFxPDpxwB3TJg5B8c'}, {'role': 'listener', 'text': '2 triangles pointing left under ""the head""', 'playerId': '5gu2PxNMofbCYiqjN'}, {'role': 'speaker', 'text': 'The top is a diamond The diamond sits on top of one triangle, which itself sits on top of another triangle The ""leg"" kicking out behind is two triangles that attach at the points The ""leg"" standing is a rectangle on top of another triangle that points left', 'playerId': 'tFxPDpxwB3TJg5B8c'}, {'role': 'speaker', 'text': 'Yes, triangles pointing left Repi', 'playerId': 'tFxPDpxwB3TJg5B8c'}]",19,14.766,6_thick,9
871,7849,2_player,thin,round_1,1,D,53uTmg2fquiNWgaK9,D,"[{'role': 'speaker', 'text': 'standing', 'playerId': '8TCXBa5TcMjPDEKv6'}, {'role': 'speaker', 'text': 'holding something on left', 'playerId': '8TCXBa5TcMjPDEKv6'}]",21,7.849,2_thin,10
871,7750,2_player,thin,round_1,1,E,jogDrQkpEKFNKDtfk,E,"[{'role': 'speaker', 'text': 'two triangles top of head', 'playerId': 'y3TZknTa3KR3ZJ7uz'}]",23,7.75,2_thin,11
871,17436,6_player,thin,round_1,0,L,PppCQXs7SSfgS4Ygj,K,"[{'role': 'speaker', 'text': 'It looks like a woman wearing a gown, kneeling with her arms out to the right', 'playerId': '8pHKrs9sqvZcoues8'}]",25,17.436,6_thin,12
871,6036,2_player,thin,round_1,1,F,yY6t3ocwkwtpDQevb,F,"[{'role': 'speaker', 'text': 'sitting down', 'playerId': 'JEN6tGRhCXtAToQ5m'}, {'role': 'speaker', 'text': 'facing left', 'playerId': 'JEN6tGRhCXtAToQ5m'}]",27,6.036,2_thin,13
871,27851,6_player,thin,round_1,0,B,qnNnL5JsTPjnv3LW8,H,"[{'role': 'speaker', 'text': 'someone with two pointy shoulders facing towards us', 'playerId': 'GHPXGrJc4hqY2F4dv'}, {'role': 'speaker', 'text': 'two triangle shoulders', 'playerId': 'GHPXGrJc4hqY2F4dv'}, {'role': 'speaker', 'text': 'sitting', 'playerId': 'GHPXGrJc4hqY2F4dv'}]",29,27.851,6_thin,14
871,15165,6_player,thin,round_1,0,D,RBnjoHwwmyq7ojwD7,F,"[{'role': 'speaker', 'text': 'Someone praying but this time to the left', 'playerId': 'h7JqyA9bN55Ztvpnp'}, {'role': 'speaker', 'text': 'with their feet on the ground', 'playerId': 'h7JqyA9bN55Ztvpnp'}, {'role': 'speaker', 'text': 'The book is open', 'playerId': 'h7JqyA9bN55Ztvpnp'}]",31,15.165,6_thin,15
871,12033,6_player,thick,round_6,0,L,G74GhYGrsaxrsfYxf,K,"[{'role': 'speaker', 'text': 'praying person god top left', 'playerId': 'G7t4KfQdMhBApqMvT'}]",33,12.033,6_thick,16
871,42701,6_player,thin,round_6,0,G,7Djg3JQnctbBGbR6q,C,"[{'role': 'speaker', 'text': 'facing right, kneeling , long legs back, head bent back, two triangle arms directing traffic', 'playerId': 'SJZZc5m6KhXZwX2CE'}, {'role': 'speaker', 'text': ""Maybe they're flags"", 'playerId': 'SJZZc5m6KhXZwX2CE'}]",35,42.701,6_thin,17
871,37350,6_player,thick,round_1,1,D,xxh6EZ5ESMvTDboLx,D,"[{'role': 'speaker', 'text': ""arms to the left looks like it's holding something diamond head"", 'playerId': 'ETWC7GktmiQ8Fmtef'}]",37,37.35,6_thick,18
871,23253,2_player,thick,round_6,1,G,wPKShK8DJjFJDPPC2,G,"[{'role': 'speaker', 'text': 'Square shaped ear, dog shaped ear, bottom portion of body pointing left', 'playerId': '7873fQ46q5WbGoifc'}]",39,23.253,2_thick,19
871,24168,6_player,thin,round_1,1,J,vfBNc7APPeQqXwJep,J,"[{'role': 'speaker', 'text': 'square at the top with a square shape in the middle with a point on the right side', 'playerId': 'AbDh35xzSqzppDyPx'}]",41,24.168,6_thin,20
871,13566,6_player,thick,round_6,0,F,eYSrAKh9knoEHcLid,H,"[{'role': 'speaker', 'text': 'Sitting with back to tree', 'playerId': 'mMkdNCbkNosrcwQ6M'}]",43,13.566,6_thick,21
871,9034,2_player,thick,round_6,1,G,6cWDb4KB2JkQYoEn8,G,"[{'role': 'speaker', 'text': 'stretched dancer, big leg on left', 'playerId': 'hMtbTjcXoP7mcPqWm'}]",45,9.034,2_thick,22
871,12716,2_player,thin,round_1,0,D,boh4YsJCatyo5uyE8,J,"[{'role': 'speaker', 'text': 'Figure standing tall as if giving a lecture', 'playerId': '9paA9FyyYx2HEvQQD'}]",47,12.716,2_thin,23
871,9849,2_player,thick,round_6,1,B,znKKpRy5yMqbmRwJs,B,"[{'role': 'speaker', 'text': 'Abstract Box and triangle falling off on right', 'playerId': 'BvaPCcwnMZiHzHzcz'}, {'role': 'listener', 'text': 'toes on bottom left', 'playerId': 'mRs9KHcNtboF6jYk8'}, {'role': 'speaker', 'text': 'Yes, triangle to the far left', 'playerId': 'BvaPCcwnMZiHzHzcz'}]",49,9.849,2_thick,24
871,10334,6_player,thick,round_1,0,K,APb85jFMnKTvtxB9Q,B,"[{'role': 'speaker', 'text': 'Kneeling Pointing to the right Upward pointing skirt', 'playerId': '8EKHajAZMvmFinexJ'}]",51,10.334,6_thick,25
871,12848,2_player,thin,round_6,0,B,nK7PQshcrKCYzjoeX,A,"[{'role': 'speaker', 'text': 'mouse', 'playerId': 'LTX8PWemF9DjKLNcW'}]",53,12.848,2_thin,26
871,7568,6_player,thin,round_6,1,F,yf4vLYMpH9j84z98K,F,"[{'role': 'speaker', 'text': 'sitting down facing to the left', 'playerId': 'vRLBXj64qxHFQNKc3'}]",55,7.568,6_thin,27
871,9957,2_player,thin,round_6,0,B,G5HKftuSE5K4WT9bH,G,"[{'role': 'speaker', 'text': 'Flying bird, triangle arms', 'playerId': 'CbucCohak2hiJzSa6'}]",57,9.957,2_thin,28
871,29001,2_player,thick,round_1,1,H,v38FZLkyFdEaiDQeh,H,"[{'role': 'speaker', 'text': 'this looks like a person who is seated, kind of like you are looking at someone with legs crossed over one another in front of them, but you are not seeing them head-on, instead you see their one crossed knee to the right of the screen', 'playerId': 'CJTaDhWCSTLmWfMoR'}]",59,29.001,2_thick,29
871,39683,6_player,thin,round_6,0,G,3zuSR5MLLHFo57ngd,B,"[{'role': 'speaker', 'text': 'the diamond is slanted to the left', 'playerId': 'js59gnvFHgHLEnkuL'}, {'role': 'speaker', 'text': 'there arm is raised up on the right side', 'playerId': 'js59gnvFHgHLEnkuL'}, {'role': 'speaker', 'text': 'and right leg is on the right', 'playerId': 'js59gnvFHgHLEnkuL'}, {'role': 'speaker', 'text': 'the left side is flat', 'playerId': 'js59gnvFHgHLEnkuL'}, {'role': 'speaker', 'text': 'the right side is flat like a rectangle', 'playerId': 'js59gnvFHgHLEnkuL'}, {'role': 'speaker', 'text': 'bottom right side is shaped like a rectangle', 'playerId': 'js59gnvFHgHLEnkuL'}]",61,39.683,6_thin,30
871,8851,6_player,thick,round_6,1,C,eYSrAKh9knoEHcLid,C,"[{'role': 'speaker', 'text': ""Ghost - y'all are doing great"", 'playerId': 'mMkdNCbkNosrcwQ6M'}]",63,8.851,6_thick,31
871,6684,6_player,thin,round_1,0,F,FEPXqBHpf4Q5CfCju,H,"[{'role': 'speaker', 'text': 'sitting down with hands below the legs', 'playerId': '6Kav3RXmngLqqGgzb'}]",65,6.684,6_thin,32
871,7785,6_player,thick,round_1,1,I,ASJgHR2N8wCgN32cu,I,"[{'role': 'speaker', 'text': 'A person standing on one leg, the other leg is sticking out to the right', 'playerId': 'YT2Nq7XZoMqoZoRX9'}]",67,7.785,6_thick,33
871,11381,2_player,thick,round_1,0,F,JCq6bt8bjpBggFPyM,B,"[{'role': 'speaker', 'text': 'looks like a person sitting down contemplating', 'playerId': '7KhipcCnuF2SDDKvi'}, {'role': 'speaker', 'text': 'head on top right', 'playerId': '7KhipcCnuF2SDDKvi'}, {'role': 'speaker', 'text': 'legs on bottom left', 'playerId': '7KhipcCnuF2SDDKvi'}, {'role': 'speaker', 'text': 'with knees bent', 'playerId': '7KhipcCnuF2SDDKvi'}, {'role': 'speaker', 'text': 'butt on floor on bottom right', 'playerId': '7KhipcCnuF2SDDKvi'}]",69,11.381,2_thick,34
871,9219,6_player,thick,round_6,0,C,J5gYJw8tzaF3TwhaC,K,"[{'role': 'speaker', 'text': 'candlestick from beauty and the beast or person leaning forward, arms up', 'playerId': 'Yhp6ZinpdiS5TfpoA'}]",71,9.219,6_thick,35
871,6867,6_player,thick,round_1,1,H,Cd78pF39goegJ3bsA,H,"[{'role': 'speaker', 'text': 'a baby swaddled, no arms', 'playerId': 'YA854Kq94JdiomiiP'}]",73,6.867,6_thick,36
871,13916,6_player,thick,round_1,0,L,QkKavPsKXNH5uJzrs,G,"[{'role': 'speaker', 'text': 'this one looks like a person about to keel while holding their arms to the right', 'playerId': 'ySkkTvw6MWq2jN8sB'}, {'role': 'speaker', 'text': 'the bottom ""legs"" are together and bent to the right', 'playerId': 'ySkkTvw6MWq2jN8sB'}, {'role': 'speaker', 'text': 'the back is straight', 'playerId': 'ySkkTvw6MWq2jN8sB'}, {'role': 'listener', 'text': 'how about the arms', 'playerId': '45SedEFMPvXQwJr5u'}, {'role': 'speaker', 'text': 'the arms fe right', 'playerId': 'ySkkTvw6MWq2jN8sB'}]",75,13.916,6_thick,37
871,17583,2_player,thin,round_1,0,C,BP9jqaXgDcqoupu9X,I,"[{'role': 'speaker', 'text': 'the image has a rhombus, where the point goes diagonally from the bottom left to the top right there are two arm looking shapes coming from the top left side of the rhombus, with a diamond square shaped head coming from the rhombus', 'playerId': 'MjgM5qp98eAX4zuZL'}]",77,17.583,2_thin,38
871,18653,2_player,thin,round_1,1,G,QTLcapnjShjWX3s4t,G,"[{'role': 'speaker', 'text': 'on your left square on a tilted top and right two triangles', 'playerId': '7ycbvgZt9bc9A7AJj'}]",79,18.653,2_thin,39
871,8215,6_player,thick,round_6,0,F,yuahmMCJwB5LLGYHB,E,"[{'role': 'speaker', 'text': 'situps', 'playerId': 'WLChjCXuws93NcRaQ'}, {'role': 'listener', 'text': ""that's a bunny to the left"", 'playerId': '2bFb6556mpGYTXBMX'}, {'role': 'listener', 'text': 'lefty', 'playerId': '2bFb6556mpGYTXBMX'}, {'role': 'listener', 'text': 'left*', 'playerId': '2bFb6556mpGYTXBMX'}]",81,8.215,6_thick,40
871,10534,2_player,thick,round_1,0,J,voSMQaG9H4nC4jy32,L,"[{'role': 'speaker', 'text': 'this one is the squattiest one', 'playerId': 'xCczn7ZDHtYRWQE6W'}]",83,10.534,2_thick,41
871,7667,2_player,thin,round_6,0,F,22dyGMRgestp8u5Lc,G,"[{'role': 'speaker', 'text': 'relaxing in park', 'playerId': 'zbNWfn7CxR9SSytWA'}]",85,7.667,2_thin,42
871,2086,2_player,thick,round_6,1,C,8rdFCKG2CvuTrLnAM,C,"[{'role': 'speaker', 'text': 'goalkeeper', 'playerId': 'sXCiFPWdDG3oRZb4u'}]",87,2.086,2_thick,43
871,11457,2_player,thin,round_1,0,G,xPDpppkjxby6SWWQE,J,"[{'role': 'speaker', 'text': 'it kinda looks like a deformed high heel, very bottom heavy with a small triangle representing the heel of the shoe', 'playerId': 'XRm49YNiQZ82knkDb'}]",89,11.457,2_thin,44
871,1765,2_player,thin,round_6,1,E,mfHF5dsRBFvoJKmv7,E,"[{'role': 'speaker', 'text': 'rabbit', 'playerId': 'RBMaXWoaFLp3JrbMZ'}]",91,1.765,2_thin,45
871,19242,6_player,thin,round_6,0,F,78pdRXrYqcWKaNMsA,A,"[{'role': 'speaker', 'text': 'sitting left legs drawn up', 'playerId': 'i7JHRaSobHRNAbiut'}]",93,19.242,6_thin,46
871,5601,6_player,thin,round_1,1,I,hycXgPznSi3hzjcfX,I,"[{'role': 'speaker', 'text': 'Standing with one foot in air', 'playerId': 'M6n7xmPC97pxnhAah'}, {'role': 'speaker', 'text': 'Two triangles makes up arms', 'playerId': 'M6n7xmPC97pxnhAah'}]",95,5.601,6_thin,47
871,20072,2_player,thin,round_6,1,L,3yh8YmunGyJ3aQmWd,L,"[{'role': 'speaker', 'text': 'facing right, legs bent, reading a book', 'playerId': 'jYjCgmiAtd4SvCC8t'}]",97,20.072,2_thin,48
871,18869,6_player,thick,round_1,1,C,FQmZmJts5MsgBFKCs,C,"[{'role': 'speaker', 'text': 'figure catching a ball to left hand side', 'playerId': '4bzGCtgSy2NNk9Q5m'}, {'role': 'listener', 'text': 'both arms pointed up on either side', 'playerId': 'qEh6S5ymRBnq9Sb3N'}, {'role': 'speaker', 'text': 'no legs visible only upper body and outstretched arms', 'playerId': '4bzGCtgSy2NNk9Q5m'}]",99,18.869,6_thick,49
871,1284,6_player,thin,round_6,1,E,hycXgPznSi3hzjcfX,E,"[{'role': 'speaker', 'text': 'Rabbit', 'playerId': 'TWXWnAChyvw94LtaH'}]",101,1.284,6_thin,50
871,32242,6_player,thick,round_6,1,D,8gqBudziFTfxbfF4b,D,"[{'role': 'speaker', 'text': 'man facing left, holding hat, waiting for coin', 'playerId': '7TGyFjStsSDQvdLYa'}]",103,32.242,6_thick,51
871,12015,2_player,thick,round_6,0,G,3LD6SkQZcPSYXHE9W,H,"[{'role': 'speaker', 'text': 'mouse with knees bent', 'playerId': 'LyQyeWbntRWk8ms69'}]",105,12.015,2_thick,52
871,6683,6_player,thin,round_6,0,A,vb35TJcSHPpKxAzJo,I,"[{'role': 'speaker', 'text': 'About to throw a baseball one leg in front of the other to the right', 'playerId': 'FZwaqKfJFzuRG7WoT'}, {'role': 'speaker', 'text': 'Square head due to the angle', 'playerId': 'FZwaqKfJFzuRG7WoT'}]",107,6.683,6_thin,53
871,17967,2_player,thick,round_1,1,H,6cWDb4KB2JkQYoEn8,H,"[{'role': 'speaker', 'text': 'quietly sitting figure, knees bent to right, no feet or hands visible', 'playerId': 'hMtbTjcXoP7mcPqWm'}]",109,17.967,2_thick,54
871,5517,2_player,thin,round_6,1,C,bio32nY9h7AZxfcX3,C,"[{'role': 'speaker', 'text': 'flying', 'playerId': 'Cgsh6SKbwvHuM8nWk'}]",111,5.517,2_thin,55
871,7000,6_player,thin,round_1,0,J,xSm8KNffud9xrhzXt,D,"[{'role': 'speaker', 'text': 'diamond shape on very top centered', 'playerId': 'pBWF9Yg8Gkrzgz6ZZ'}, {'role': 'speaker', 'text': 'flat on top and straight on one side', 'playerId': 'pBWF9Yg8Gkrzgz6ZZ'}]",113,7,6_thin,56
871,9534,2_player,thin,round_1,1,F,dL448N8edL6crs7PZ,F,"[{'role': 'speaker', 'text': 'Reclining sitting position facing the left with knees raised up and feet on the floor', 'playerId': 'MoZuftrvPB2dHtT5i'}]",115,9.534,2_thin,57
871,8669,6_player,thin,round_6,0,G,Nh8nE8Qa4C3BkbhD6,H,"[{'role': 'speaker', 'text': 'weird one with arms behind', 'playerId': '5JEmHBEF2C5GGGZkJ'}]",117,8.669,6_thin,58
871,14633,6_player,thick,round_6,0,F,iHNnNCnSAx2TYjDhf,E,"[{'role': 'speaker', 'text': '6', 'playerId': '2ub9Fg5YrCita2F2y'}]",119,14.633,6_thick,59
871,9983,2_player,thick,round_6,0,G,iccbYJSQjLTn6eLYG,I,"[{'role': 'speaker', 'text': 'horse', 'playerId': '5Hf9XL6EddeSLkxR5'}]",121,9.983,2_thick,60
871,4219,2_player,thin,round_6,1,J,mfHF5dsRBFvoJKmv7,J,"[{'role': 'speaker', 'text': 'short', 'playerId': 'RBMaXWoaFLp3JrbMZ'}]",123,4.219,2_thin,61
871,8900,2_player,thick,round_6,0,L,3fMcwrqnhrEwubixY,B,"[{'role': 'speaker', 'text': 'facing right knees bent', 'playerId': 'eMvgBjGsYxCbZWwkM'}]",125,8.9,2_thick,62
871,11584,2_player,thick,round_1,1,F,NdrBpKKdJinL4P9pF,F,"[{'role': 'speaker', 'text': 'square on top of a turtle shell like shape and a rectangle on the bottom', 'playerId': 'fzPLirZgYXeqXcey7'}, {'role': 'speaker', 'text': 'looks like someone sitting in a bean bag chair', 'playerId': 'fzPLirZgYXeqXcey7'}]",127,11.584,2_thick,63
871,9549,2_player,thick,round_1,1,A,XaYo7mGCsyJKW3w4Z,A,"[{'role': 'speaker', 'text': 'looks like a man with a backpack', 'playerId': 'NYD7GMoHm3TagmyTN'}, {'role': 'speaker', 'text': 'leg in the air', 'playerId': 'NYD7GMoHm3TagmyTN'}, {'role': 'speaker', 'text': 'backpack is a diamond shape', 'playerId': 'NYD7GMoHm3TagmyTN'}]",129,9.549,2_thick,64
904,9995,2_player,thick,round_1,1,H,htub6itv8siAtQv22,H,"[{'role': 'speaker', 'text': 'Looks a bit like the letter i the diamond is at the top in the center, the body is mainly straight apart from the bottom where it goes to the right', 'playerId': 'HvkLtechHtpsjT9rJ'}]",3,9.995,2_thick,1
904,7528,6_player,thin,round_6,0,K,vHHRDD5s36Ya2xGvS,L,"[{'role': 'speaker', 'text': 'Praying', 'playerId': 'R7ioWHKEJCBidQWRz'}]",5,7.528,6_thin,2
904,8263,2_player,thin,round_1,1,F,22dyGMRgestp8u5Lc,F,"[{'role': 'speaker', 'text': 'Guy relaxing in the park facing left arms to side (not visible) knees up', 'playerId': 'aSeEmufWmsbLn7YEQ'}]",7,8.263,2_thin,3
904,65483,6_player,thin,round_6,0,B,4jb479ZcxyntN9bzn,A,"[{'role': 'speaker', 'text': 'funny hat on back of head', 'playerId': 'YbvfqqB8H6sm4ud2t'}, {'role': 'speaker', 'text': 'upside down', 'playerId': 'YbvfqqB8H6sm4ud2t'}, {'role': 'speaker', 'text': 'triangular arms', 'playerId': 'YbvfqqB8H6sm4ud2t'}, {'role': 'speaker', 'text': 'square head', 'playerId': 'YbvfqqB8H6sm4ud2t'}, {'role': 'speaker', 'text': 'can see ankles', 'playerId': 'YbvfqqB8H6sm4ud2t'}, {'role': 'speaker', 'text': 'facing right', 'playerId': 'YbvfqqB8H6sm4ud2t'}]",9,65.483,6_thin,4
904,17940,2_player,thin,round_6,1,D,bio32nY9h7AZxfcX3,D,"[{'role': 'speaker', 'text': 'robe one with arms left', 'playerId': 'Cgsh6SKbwvHuM8nWk'}]",11,17.94,2_thin,5
904,10237,2_player,thin,round_1,1,L,c3627RTtA7SfM2g6N,L,"[{'role': 'speaker', 'text': 'Guy kneeling and holding out a plate', 'playerId': '9DKRanTDSC4cchEY6'}]",13,10.237,2_thin,6
904,2234,6_player,thin,round_6,1,C,GfdodQMJHhNodveqQ,C,"[{'role': 'speaker', 'text': 'falling to the left with arms up in the air', 'playerId': 'mJoMeCNLNBvXsdrNr'}]",15,2.234,6_thin,7
904,19640,2_player,thin,round_6,0,A,5pxA8N5MZQKx6CQNK,J,"[{'role': 'speaker', 'text': 'flag', 'playerId': 'wS6Wk6zib8zYhzcim'}]",17,19.64,2_thin,8
904,6739,6_player,thin,round_6,1,D,MR4xnrE8c4oCHmZX2,D,"[{'role': 'speaker', 'text': 'stood facing left', 'playerId': 'muoR38p6HFjao4cKu'}, {'role': 'speaker', 'text': 'reading', 'playerId': 'muoR38p6HFjao4cKu'}]",19,6.739,6_thin,9
904,4698,6_player,thick,round_1,1,I,eYSrAKh9knoEHcLid,I,"[{'role': 'speaker', 'text': 'It looks like a person standing on one leg, their other leg is pointing out in the air to the right Their two arms are pointing left', 'playerId': 'mMkdNCbkNosrcwQ6M'}]",21,4.698,6_thick,10
904,10567,2_player,thick,round_1,1,G,MM87KaCiwe9vRcvbi,G,"[{'role': 'speaker', 'text': 'Looks like a person with a dress on that has a train, the train dragging on the left side', 'playerId': '3DR3LKCnkxsbbDYdm'}, {'role': 'speaker', 'text': 'head would be looking up', 'playerId': '3DR3LKCnkxsbbDYdm'}]",23,10.567,2_thick,11
904,11164,6_player,thick,round_1,1,A,G74GhYGrsaxrsfYxf,A,"[{'role': 'speaker', 'text': ""looks like a animal with a square on the right side of his neck It's head is angled down to the left"", 'playerId': 'G7t4KfQdMhBApqMvT'}, {'role': 'speaker', 'text': 'the square is on right side of his neck close to its shoulder', 'playerId': 'G7t4KfQdMhBApqMvT'}, {'role': 'speaker', 'text': 'it has one leg of the floor and the other is on the floor', 'playerId': 'G7t4KfQdMhBApqMvT'}]",25,11.164,6_thick,12
904,9128,2_player,thick,round_6,0,K,p8CZhTq5mEiuypAfk,L,"[{'role': 'speaker', 'text': 'plate', 'playerId': 'mGtkMxGiXXs6j2cm3'}]",27,9.128,2_thick,13
904,9469,2_player,thick,round_1,1,E,TswNa6hfiGwkWHMgB,E,"[{'role': 'speaker', 'text': 'girl with boy sitting down with knees up', 'playerId': 'BCjiqev2Kt7Lze3nQ'}, {'role': 'speaker', 'text': 'girl with bow, sitting down with knees up', 'playerId': 'BCjiqev2Kt7Lze3nQ'}]",29,9.469,2_thick,14
904,10096,2_player,thin,round_6,1,D,53uTmg2fquiNWgaK9,D,"[{'role': 'speaker', 'text': 'kneeling to left with bowl', 'playerId': '93Xm8bMcDzKRcrDhL'}]",31,10.096,2_thin,15
904,9599,2_player,thick,round_6,1,L,kAkYw4pRQAqy6y7CL,L,"[{'role': 'speaker', 'text': 'Zig zag legs', 'playerId': 'hecS9uStXR3oAiNnb'}]",33,9.599,2_thick,16
904,9575,2_player,thick,round_1,1,D,6cWDb4KB2JkQYoEn8,D,"[{'role': 'speaker', 'text': 'standing figure with book at left hand side', 'playerId': 'hMtbTjcXoP7mcPqWm'}]",35,9.575,2_thick,17
904,12416,2_player,thick,round_6,1,J,znKKpRy5yMqbmRwJs,J,"[{'role': 'speaker', 'text': 'Unfinished rectangle on bottom, box on top in diamond shape', 'playerId': 'BvaPCcwnMZiHzHzcz'}]",37,12.416,2_thick,18
904,5323,2_player,thin,round_1,0,L,BP9jqaXgDcqoupu9X,K,"[{'role': 'speaker', 'text': 'looks like someone crouching, with a diamond shaped head, holding what is a triangle', 'playerId': 'MjgM5qp98eAX4zuZL'}]",39,5.323,2_thin,19
904,6280,2_player,thick,round_1,1,J,6cWDb4KB2JkQYoEn8,J,"[{'role': 'speaker', 'text': 'boxy figure , shoulder sticking out on right, pointed toe on right', 'playerId': 'hMtbTjcXoP7mcPqWm'}]",41,6.28,2_thick,20
904,10136,2_player,thick,round_6,0,G,3LD6SkQZcPSYXHE9W,E,"[{'role': 'speaker', 'text': 'mouse with knees bent', 'playerId': 'LyQyeWbntRWk8ms69'}]",43,10.136,2_thick,21
904,9310,6_player,thick,round_1,1,A,5wn4MiopXyfXuTxG9,A,"[{'role': 'speaker', 'text': 'raise one leg to the front while head pointing down', 'playerId': 'krufYfRwDYfYGxy2G'}]",45,9.31,6_thick,22
904,5777,2_player,thick,round_6,1,L,GPXXTJBweJggYMYrF,L,"[{'role': 'speaker', 'text': 'praying slim one facing right no bumps on the back', 'playerId': 'ZLmRMKZzibrTNB5sv'}]",47,5.777,2_thick,23
904,11232,6_player,thin,round_1,0,I,tWcPGsuGdiD2J7Nrw,G,"[{'role': 'speaker', 'text': 'looks like a dancer and looking left', 'playerId': '4YpQbkXrBFLorgych'}, {'role': 'speaker', 'text': 'both hands out looking right', 'playerId': '4YpQbkXrBFLorgych'}, {'role': 'speaker', 'text': 'one leg up looking left', 'playerId': '4YpQbkXrBFLorgych'}]",49,11.232,6_thin,24
904,35494,6_player,thick,round_1,0,L,QkKavPsKXNH5uJzrs,G,"[{'role': 'speaker', 'text': 'this one looks like a person about to keel while holding their arms to the right', 'playerId': 'ySkkTvw6MWq2jN8sB'}, {'role': 'speaker', 'text': 'the bottom ""legs"" are together and bent to the right', 'playerId': 'ySkkTvw6MWq2jN8sB'}, {'role': 'speaker', 'text': 'the back is straight', 'playerId': 'ySkkTvw6MWq2jN8sB'}, {'role': 'listener', 'text': 'how about the arms', 'playerId': '45SedEFMPvXQwJr5u'}, {'role': 'speaker', 'text': 'the arms fe right', 'playerId': 'ySkkTvw6MWq2jN8sB'}]",51,35.494,6_thick,25
904,2588,2_player,thin,round_1,0,F,53uTmg2fquiNWgaK9,H,"[{'role': 'speaker', 'text': 'sitting', 'playerId': '8TCXBa5TcMjPDEKv6'}]",53,2.588,2_thin,26
904,18247,6_player,thick,round_1,1,A,244HZEA6vDgTcLdLs,A,"[{'role': 'speaker', 'text': 'Someone standing with their feet pointing left, one leg in the air, arms raised and their head looking right', 'playerId': 'qqFaAChg6PZNLvbix'}, {'role': 'speaker', 'text': 'The raised leg is in front of their body, not behind', 'playerId': 'qqFaAChg6PZNLvbix'}]",55,18.247,6_thick,27
904,6596,2_player,thick,round_1,1,F,TswNa6hfiGwkWHMgB,F,"[{'role': 'speaker', 'text': 'boy sitting with knees up', 'playerId': 'BCjiqev2Kt7Lze3nQ'}, {'role': 'speaker', 'text': ""blockhead boy sitting with knees up like he's reading a book on the ground"", 'playerId': 'BCjiqev2Kt7Lze3nQ'}]",57,6.596,2_thick,28
904,27798,6_player,thin,round_1,1,K,hZ2XNN9DzrhuXEEKk,K,"[{'role': 'speaker', 'text': ""kneeling looking right, invisible bench again but this time they're the one with the tail"", 'playerId': 'RXwxNgZ3woRKWejjP'}, {'role': 'speaker', 'text': 'arm out to the right', 'playerId': 'RXwxNgZ3woRKWejjP'}, {'role': 'speaker', 'text': 'looks like their head is sitting on top of a head', 'playerId': 'RXwxNgZ3woRKWejjP'}]",59,27.798,6_thin,29
904,5964,2_player,thick,round_6,1,D,McS8GHduqHkKFYD5o,D,"[{'role': 'speaker', 'text': 'podium guy facing left', 'playerId': 'qe6HAfu3ezEDCqbpT'}]",61,5.964,2_thick,30
904,2165,2_player,thick,round_6,1,I,znKKpRy5yMqbmRwJs,I,"[{'role': 'speaker', 'text': 'Ice skater', 'playerId': 'BvaPCcwnMZiHzHzcz'}]",63,2.165,2_thick,31
904,11865,6_player,thin,round_1,1,E,4jb479ZcxyntN9bzn,E,"[{'role': 'speaker', 'text': 'imagine a triangle with a square shape on top and then two small triangles on the very top', 'playerId': 'NLFbrRbtGqkj2hz48'}, {'role': 'speaker', 'text': 'the large triangle at the bottom has a rh side which is not straight, there is a bit indented', 'playerId': 'NLFbrRbtGqkj2hz48'}, {'role': 'speaker', 'text': 'looks a bit like a bunnies head at the top with two triangular ears', 'playerId': 'NLFbrRbtGqkj2hz48'}]",65,11.865,6_thin,32
904,3912,6_player,thick,round_6,1,D,2p26ok9CFsRGJGceh,D,"[{'role': 'speaker', 'text': ""5 5 It's the priest again giving his sermon to people on left"", 'playerId': 'wcqH3MeeC8KicnQmh'}]",67,3.912,6_thick,33
904,16952,2_player,thin,round_1,0,K,MgTftLm4vyzDj8Tv6,L,"[{'role': 'speaker', 'text': 'The figure is kneeling with back straight and facing to the right The body is vertical', 'playerId': 'KoTyLXzrbtuHjt625'}]",69,16.952,2_thin,34
904,6140,2_player,thin,round_1,0,A,9wbjtnF8xe5ymzikg,B,"[{'role': 'speaker', 'text': 'This looks like a half bird half human facing the left', 'playerId': '3R3qpxKrLougMSfGd'}]",71,6.14,2_thin,35
904,10329,6_player,thick,round_6,0,H,awMBFij9Yo8w2nA5K,G,"[{'role': 'speaker', 'text': 'Car seat again', 'playerId': 'tFxPDpxwB3TJg5B8c'}]",73,10.329,6_thick,36
904,1704,6_player,thin,round_6,1,E,Nh8nE8Qa4C3BkbhD6,E,"[{'role': 'speaker', 'text': 'bunny', 'playerId': '5JEmHBEF2C5GGGZkJ'}, {'role': 'speaker', 'text': 'rabbit ears', 'playerId': '5JEmHBEF2C5GGGZkJ'}]",75,1.704,6_thin,37
904,7512,6_player,thin,round_1,1,L,w3iX3WeXrGQDWqzwf,L,"[{'role': 'speaker', 'text': 'looks like they are ABOUT to kneel down', 'playerId': 'PbHbMMmhuqT4KcqhB'}, {'role': 'speaker', 'text': 'facing right', 'playerId': 'PbHbMMmhuqT4KcqhB'}, {'role': 'speaker', 'text': 'holding something pointy on the right', 'playerId': 'PbHbMMmhuqT4KcqhB'}]",77,7.512,6_thin,38
904,1072,6_player,thick,round_6,1,E,BTbGhXZvjdSFubTBg,E,"[{'role': 'speaker', 'text': 'rabbit ears', 'playerId': 'WXmyGwByDtSr3gTyk'}]",79,1.072,6_thick,39
904,6384,6_player,thick,round_6,1,F,3Sj3XTKmk9Rqe4Bim,F,"[{'role': 'speaker', 'text': 'sitting down back against the wall', 'playerId': 'xGudhNiRmy2YuaHzK'}]",81,6.384,6_thick,40
904,6866,2_player,thin,round_6,0,L,QTLcapnjShjWX3s4t,G,"[{'role': 'speaker', 'text': ""body is 's' shape"", 'playerId': 'xC7eosoFk4ekBGb85'}]",83,6.866,2_thin,41
904,7168,6_player,thick,round_6,1,F,QG9fkFCXKj6g9mjR5,F,"[{'role': 'speaker', 'text': 'Knees bent upwards with head in middle diagonal to left', 'playerId': 'u3bWoHe66Wu9yh7ka'}]",85,7.168,6_thick,42
904,12972,6_player,thick,round_1,1,I,8ukdn7m9ypXhxpPR4,I,"[{'role': 'speaker', 'text': 'the figures leg is in the air one foot on the ground the other in the air the figure is faced on the left the leg up is on the right', 'playerId': 'HjETYsPdB49PboNEN'}, {'role': 'listener', 'text': '2 triangles on the left', 'playerId': 'ygaSc6oZ2uhyiDKbr'}]",87,12.972,6_thick,43
904,9828,6_player,thick,round_1,1,D,3Sj3XTKmk9Rqe4Bim,D,"[{'role': 'speaker', 'text': 'looks like the outline of a priest or pope with their arms extended out maybe holding a robe or cloth', 'playerId': 'xGudhNiRmy2YuaHzK'}]",89,9.828,6_thick,44
904,1864,2_player,thick,round_6,1,C,htub6itv8siAtQv22,C,"[{'role': 'speaker', 'text': 'arms in air', 'playerId': 'HvkLtechHtpsjT9rJ'}]",91,1.864,2_thick,45
904,6752,2_player,thin,round_6,0,K,yY6t3ocwkwtpDQevb,H,"[{'role': 'speaker', 'text': 'kneeling down facing right', 'playerId': 'JQciaQvCsPE2Ai83S'}, {'role': 'speaker', 'text': 'holding book', 'playerId': 'JQciaQvCsPE2Ai83S'}]",93,6.752,2_thin,46
904,13844,6_player,thin,round_1,1,J,2nZ79PA8WMtYNqLrS,J,"[{'role': 'speaker', 'text': 'me again', 'playerId': 'ctzHieY2ez3ECHtRo'}, {'role': 'speaker', 'text': 'triangle arm pointing right', 'playerId': 'ctzHieY2ez3ECHtRo'}, {'role': 'speaker', 'text': 'middle head', 'playerId': 'ctzHieY2ez3ECHtRo'}, {'role': 'speaker', 'text': 'straight shoulders', 'playerId': 'ctzHieY2ez3ECHtRo'}]",95,13.844,6_thin,47
904,2144,6_player,thick,round_6,1,C,ASJgHR2N8wCgN32cu,C,"[{'role': 'speaker', 'text': 'A person falling backwards to the left, arms bent and raised up', 'playerId': 'YT2Nq7XZoMqoZoRX9'}]",97,2.144,6_thick,48
904,1359,6_player,thick,round_6,1,E,8ukdn7m9ypXhxpPR4,E,"[{'role': 'speaker', 'text': 'bunny ears', 'playerId': 'WsHSgaSjxKhCm57LZ'}]",99,1.359,6_thick,49
904,6817,6_player,thick,round_6,1,I,8ukdn7m9ypXhxpPR4,I,"[{'role': 'speaker', 'text': 'facing left standing on one foot, right foot in the air and is a small triangle', 'playerId': 'WsHSgaSjxKhCm57LZ'}, {'role': 'listener', 'text': 'skater', 'playerId': 'N7qTc2Ayd38hahFsw'}]",101,6.817,6_thick,50
904,4264,6_player,thin,round_6,1,A,w3iX3WeXrGQDWqzwf,A,"[{'role': 'speaker', 'text': ""It's a zombie doing the monster mash"", 'playerId': 'qr7WFkkaeMgxBYpzE'}]",103,4.264,6_thin,51
904,4972,2_player,thin,round_6,1,D,GGz5Zb58tHpG8X5z7,D,"[{'role': 'speaker', 'text': 'priest facing left, arms hands together out front left diamond head', 'playerId': 'zMrgbynyhLhqT5X3C'}]",105,4.972,2_thin,52
904,10648,2_player,thick,round_1,0,K,GPXXTJBweJggYMYrF,L,"[{'role': 'speaker', 'text': 'a guy on his knees', 'playerId': 'ZLmRMKZzibrTNB5sv'}, {'role': 'speaker', 'text': 'facing right', 'playerId': 'ZLmRMKZzibrTNB5sv'}, {'role': 'speaker', 'text': 'legs goes upwards', 'playerId': 'ZLmRMKZzibrTNB5sv'}, {'role': 'listener', 'text': ""Almost like he's praying"", 'playerId': 'WhGFXm8vfWS34Gc2k'}]",107,10.648,2_thick,53
904,6294,6_player,thin,round_6,1,I,2gkxKTcPdQews5qTX,I,"[{'role': 'speaker', 'text': 'standing one leg other leg pointing right horizontally', 'playerId': 'yN5pFmHQdR2zzStyt'}]",109,6.294,6_thin,54
904,7360,2_player,thin,round_1,1,C,byWRCj2bTz2Guefog,C,"[{'role': 'speaker', 'text': 'this looks like a person leaning to the left with their arms in the air', 'playerId': 'AXLc5WsF9dMwS482A'}, {'role': 'speaker', 'text': 'they look like they are shouting someone and hard a square head', 'playerId': 'AXLc5WsF9dMwS482A'}, {'role': 'speaker', 'text': ""they look stood up but you can't see their legs, only their body"", 'playerId': 'AXLc5WsF9dMwS482A'}, {'role': 'speaker', 'text': 'they look like they are shouting something', 'playerId': 'AXLc5WsF9dMwS482A'}]",111,7.36,2_thin,55
904,4385,6_player,thin,round_1,1,J,RBnjoHwwmyq7ojwD7,J,"[{'role': 'speaker', 'text': 'Kind of looks like a candle with chunks missing', 'playerId': 'h7JqyA9bN55Ztvpnp'}, {'role': 'speaker', 'text': 'to the right the chunks are missing', 'playerId': 'h7JqyA9bN55Ztvpnp'}, {'role': 'speaker', 'text': 'left is still in tact', 'playerId': 'h7JqyA9bN55Ztvpnp'}]",113,4.385,6_thin,56
904,17966,2_player,thin,round_1,1,E,dL448N8edL6crs7PZ,E,"[{'role': 'speaker', 'text': 'Looks like bunny ears on top of the head,, facing the right sitting, straight line back on the left, knees slightly raised', 'playerId': 'MoZuftrvPB2dHtT5i'}]",115,17.966,2_thin,57
904,13911,2_player,thin,round_6,0,B,tac8f7dPdRJLBrSMh,G,"[{'role': 'speaker', 'text': 'arms and legs behind them, on their knees, megaphone', 'playerId': 'K55iXDsX2B8hnentx'}]",117,13.911,2_thin,58
904,19145,2_player,thick,round_1,0,I,JCq6bt8bjpBggFPyM,G,"[{'role': 'speaker', 'text': 'the square head is on the top left by itself', 'playerId': '7KhipcCnuF2SDDKvi'}, {'role': 'speaker', 'text': 'shaped like a diamond from playing cards', 'playerId': '7KhipcCnuF2SDDKvi'}, {'role': 'speaker', 'text': 'with a leg sticking out to the right', 'playerId': '7KhipcCnuF2SDDKvi'}, {'role': 'speaker', 'text': 'looks like a dance pose', 'playerId': '7KhipcCnuF2SDDKvi'}]",119,19.145,2_thick,59
904,14683,6_player,thick,round_1,0,K,eYSrAKh9knoEHcLid,J,"[{'role': 'speaker', 'text': 'There is a person standing upright, perhaps holding something flat on the right The bottom left has part of a triangle which the person is stand in front of', 'playerId': 'mMkdNCbkNosrcwQ6M'}]",121,14.683,6_thick,60
904,5280,2_player,thin,round_6,1,C,byWRCj2bTz2Guefog,C,"[{'role': 'speaker', 'text': ""they're flying with arms wide out"", 'playerId': 'XJrMGAcWFb5rBFLwQ'}]",123,5.28,2_thin,61
904,69137,6_player,thin,round_1,0,H,3zuSR5MLLHFo57ngd,B,"[{'role': 'speaker', 'text': 'this one is hard', 'playerId': 'w98K6KFZmHPyfnTcw'}, {'role': 'speaker', 'text': 'never picked before', 'playerId': 'w98K6KFZmHPyfnTcw'}, {'role': 'speaker', 'text': 'diamond head', 'playerId': 'w98K6KFZmHPyfnTcw'}, {'role': 'speaker', 'text': 'triangle directly below head', 'playerId': 'w98K6KFZmHPyfnTcw'}, {'role': 'speaker', 'text': 'looks like a person standing with their back to the image', 'playerId': 'w98K6KFZmHPyfnTcw'}, {'role': 'speaker', 'text': 'not sitting, or dancing or with a platter', 'playerId': 'w98K6KFZmHPyfnTcw'}, {'role': 'speaker', 'text': 'like a diamond on top of a triangle on top of a square with a weird piece at the bottom', 'playerId': 'w98K6KFZmHPyfnTcw'}, {'role': 'speaker', 'text': 'not the dancer, the waiter, the candle, the sitter, the falling person or the rock', 'playerId': 'w98K6KFZmHPyfnTcw'}, {'role': 'speaker', 'text': 'not the prayer', 'playerId': 'w98K6KFZmHPyfnTcw'}, {'role': 'speaker', 'text': 'the other one', 'playerId': 'w98K6KFZmHPyfnTcw'}]",125,69.137,6_thin,62
904,18591,6_player,thin,round_6,0,G,tGuW7nukBHY72yfXn,B,"[{'role': 'speaker', 'text': 'Slumped, left-facing, weird bunny man with triangle hand on right side', 'playerId': 'qatayjkTEqMM6STZS'}, {'role': 'speaker', 'text': 'Square For left ear and triangle for right-facing ear', 'playerId': 'qatayjkTEqMM6STZS'}, {'role': 'speaker', 'text': ""It's that weird slumped shape facing left that looks nothing like a man"", 'playerId': 'qatayjkTEqMM6STZS'}]",127,18.591,6_thin,63
904,10418,6_player,thin,round_1,1,H,jWzDEXYJTqaLuxEfm,H,"[{'role': 'speaker', 'text': 'central body with diamond top centre', 'playerId': '6HHKBfyiqinL7JG2J'}, {'role': 'speaker', 'text': 'vertical body with diamond on top', 'playerId': '6HHKBfyiqinL7JG2J'}]",129,10.418,6_thin,64
906,88519,2_player,thick,round_1,1,I,znKKpRy5yMqbmRwJs,I,"[{'role': 'speaker', 'text': 'Figure turned to left, triangle looks like a tail on the right', 'playerId': 'BvaPCcwnMZiHzHzcz'}]",3,88.519,2_thick,1
906,10842,6_player,thick,round_6,1,H,2p26ok9CFsRGJGceh,H,"[{'role': 'speaker', 'text': '5 5 This one is Blob No definition on arms or legs', 'playerId': 'wcqH3MeeC8KicnQmh'}]",5,10.842,6_thick,2
906,7104,6_player,thick,round_6,1,I,APb85jFMnKTvtxB9Q,I,"[{'role': 'speaker', 'text': 'Ice skating', 'playerId': '8EKHajAZMvmFinexJ'}]",7,7.104,6_thick,3
906,9753,6_player,thin,round_1,1,K,dG226KpEbdnXwkPGx,K,"[{'role': 'speaker', 'text': 'Looks like the image is bowing down', 'playerId': 'MRy5sG4H9RcBMfW2b'}, {'role': 'speaker', 'text': 'Holding a bowl', 'playerId': 'MRy5sG4H9RcBMfW2b'}]",9,9.753,6_thin,4
906,8893,2_player,thick,round_6,0,H,Z2WAkYpWiXwuGcdME,A,"[{'role': 'speaker', 'text': 'limbles', 'playerId': 'R3cRgh4HmEtRsmQyp'}]",11,8.893,2_thick,5
906,9424,2_player,thick,round_6,1,C,znKKpRy5yMqbmRwJs,C,"[{'role': 'speaker', 'text': 'Arms Skyward U-shape', 'playerId': 'BvaPCcwnMZiHzHzcz'}]",13,9.424,2_thick,6
906,4177,2_player,thick,round_1,0,K,cCSd3v7a6AH8fHsJE,B,"[{'role': 'speaker', 'text': 'kneling', 'playerId': 'Dmv2wGZJEid5oXz3M'}, {'role': 'speaker', 'text': 'kneeling', 'playerId': 'Dmv2wGZJEid5oXz3M'}]",15,4.177,2_thick,7
906,84303,6_player,thin,round_1,0,L,rg6f4GNbTus2Lzao6,G,"[{'role': 'speaker', 'text': 'this image has 15 points if you count all the points and indents', 'playerId': 'J5hxT8MZzjufvnjAt'}, {'role': 'speaker', 'text': 'one square, one rhombus', 'playerId': 'J5hxT8MZzjufvnjAt'}, {'role': 'speaker', 'text': 'the rhombus is on the outside', 'playerId': 'J5hxT8MZzjufvnjAt'}, {'role': 'speaker', 'text': 'there is one triangle sticking out of the image', 'playerId': 'J5hxT8MZzjufvnjAt'}, {'role': 'speaker', 'text': 'two', 'playerId': 'J5hxT8MZzjufvnjAt'}]",17,84.303,6_thin,8
906,29094,6_player,thick,round_6,0,K,6ikro5aNu98qHGGFL,B,"[{'role': 'speaker', 'text': 'kneeling feet behind her arms out in front diamond head facing right', 'playerId': 'Mm4ut74JJKd55WcMT'}]",19,29.094,6_thick,9
906,8278,6_player,thin,round_6,1,I,dG226KpEbdnXwkPGx,I,"[{'role': 'speaker', 'text': 'Ballet dancer, one leg pointing right', 'playerId': 'MRy5sG4H9RcBMfW2b'}]",21,8.278,6_thin,10
906,6745,6_player,thin,round_6,0,F,jWzDEXYJTqaLuxEfm,D,"[{'role': 'speaker', 'text': 'sitting on floor facing left, knees bent', 'playerId': '6HHKBfyiqinL7JG2J'}]",23,6.745,6_thin,11
906,9925,2_player,thin,round_6,1,L,BP9jqaXgDcqoupu9X,L,"[{'role': 'speaker', 'text': '* The guy facing right and holding a plate, but with the legs bending', 'playerId': '6FJS2spM98nBBPJdc'}]",25,9.925,2_thin,12
906,16844,2_player,thick,round_1,1,K,GPXXTJBweJggYMYrF,K,"[{'role': 'speaker', 'text': 'a guy on his knees', 'playerId': 'ZLmRMKZzibrTNB5sv'}, {'role': 'speaker', 'text': 'facing right', 'playerId': 'ZLmRMKZzibrTNB5sv'}, {'role': 'speaker', 'text': 'legs goes upwards', 'playerId': 'ZLmRMKZzibrTNB5sv'}, {'role': 'listener', 'text': ""Almost like he's praying"", 'playerId': 'WhGFXm8vfWS34Gc2k'}]",27,16.844,2_thick,13
906,20775,6_player,thick,round_1,1,H,5wn4MiopXyfXuTxG9,H,"[{'role': 'speaker', 'text': 'Figure standing upright with no limbs extended', 'playerId': 'HJoHFMvp6qPSD2pXk'}]",29,20.775,6_thick,14
906,41553,6_player,thin,round_1,0,D,vuZBGuCBS5f9ibvk7,G,"[{'role': 'speaker', 'text': ""it's like a person holding something in front of them but its the one we have never chose in the other experiments It looks like they are holding a square"", 'playerId': 'yyyzhfLtfEXgbF8XH'}, {'role': 'speaker', 'text': 'kinda', 'playerId': 'yyyzhfLtfEXgbF8XH'}, {'role': 'speaker', 'text': 'holding something in front of them but going to the left', 'playerId': 'yyyzhfLtfEXgbF8XH'}]",31,41.553,6_thin,15
906,7664,6_player,thin,round_6,0,C,6ENiBxty3sZRCqqCy,G,"[{'role': 'speaker', 'text': 'Ghost one', 'playerId': 'EgTDCTTrJr8uxt6YW'}]",33,7.664,6_thin,16
906,11797,2_player,thick,round_6,0,B,3fMcwrqnhrEwubixY,J,"[{'role': 'speaker', 'text': 'facing right kneeling head bowed arms stretched out', 'playerId': 'eMvgBjGsYxCbZWwkM'}]",35,11.797,2_thick,17
906,27894,6_player,thick,round_1,1,A,vHRdxbuskY9MXxf4j,A,"[{'role': 'listener', 'text': ""That's what i'm talking about"", 'playerId': 'diPZJB3aPyKz8PQGT'}, {'role': 'speaker', 'text': ""this one looks like he's walking, facing left with one foot up"", 'playerId': 'RSQku3ckThbYxojeR'}, {'role': 'listener', 'text': 'almost like the zombie walk, and a weird triangle shape at the top left', 'playerId': 'diPZJB3aPyKz8PQGT'}]",37,27.894,6_thick,18
906,2638,2_player,thick,round_6,1,L,iccbYJSQjLTn6eLYG,L,"[{'role': 'speaker', 'text': 'almost kneeling man', 'playerId': '5Hf9XL6EddeSLkxR5'}]",39,2.638,2_thick,19
906,19814,6_player,thick,round_1,0,F,QkKavPsKXNH5uJzrs,G,"[{'role': 'speaker', 'text': 'this one looks like a person sitting down with their legs out to the left', 'playerId': 'ySkkTvw6MWq2jN8sB'}, {'role': 'speaker', 'text': 'the ""head"" square is tilted slightly to the left', 'playerId': 'ySkkTvw6MWq2jN8sB'}, {'role': 'listener', 'text': 'head pointed down to the left looking at the knees', 'playerId': 'ea3zT2a6Nrh5t4NAB'}]",41,19.814,6_thick,20
906,8637,6_player,thin,round_1,1,A,vfBNc7APPeQqXwJep,A,"[{'role': 'speaker', 'text': 'it has what looks like two legs on the bottom', 'playerId': 'AbDh35xzSqzppDyPx'}, {'role': 'speaker', 'text': 'a square at the top right', 'playerId': 'AbDh35xzSqzppDyPx'}, {'role': 'speaker', 'text': 'and a trapezoid at the top left', 'playerId': 'AbDh35xzSqzppDyPx'}]",43,8.637,6_thin,21
906,27389,6_player,thin,round_6,1,K,2nZ79PA8WMtYNqLrS,K,"[{'role': 'speaker', 'text': 'Kneeling person, facing right (might have a pot, but not the usual pot guy)', 'playerId': 'JGqkYg6ZyfkmWfboq'}, {'role': 'speaker', 'text': 'Not crouching!', 'playerId': 'JGqkYg6ZyfkmWfboq'}, {'role': 'speaker', 'text': 'Kneeling!', 'playerId': 'JGqkYg6ZyfkmWfboq'}, {'role': 'speaker', 'text': 'Looks a bit like a rubber duck with something on its head', 'playerId': 'JGqkYg6ZyfkmWfboq'}, {'role': 'speaker', 'text': 'Diamond at the top, on top of another diamond', 'playerId': 'JGqkYg6ZyfkmWfboq'}]",45,27.389,6_thin,22
906,18095,6_player,thick,round_1,0,L,6ikro5aNu98qHGGFL,K,"[{'role': 'speaker', 'text': 'partially sitting , triangle for the head , facing right , ars and knees out in front of body', 'playerId': 'Mm4ut74JJKd55WcMT'}, {'role': 'speaker', 'text': 'feet behind him', 'playerId': 'Mm4ut74JJKd55WcMT'}, {'role': 'listener', 'text': 'do you mean a diamond for the head', 'playerId': 'NeeLki6vCQP4BXAQp'}]",47,18.095,6_thick,23
906,4834,2_player,thin,round_6,0,J,MgTftLm4vyzDj8Tv6,G,"[{'role': 'speaker', 'text': 'semi blocky', 'playerId': 'jNouuygdxoy87gYP6'}]",49,4.834,2_thin,24
906,4714,2_player,thick,round_1,1,F,3fMcwrqnhrEwubixY,F,"[{'role': 'speaker', 'text': 'man sitting down, facing left, feet out in front of him', 'playerId': 'eMvgBjGsYxCbZWwkM'}]",51,4.714,2_thick,25
906,20424,2_player,thick,round_6,0,I,wPKShK8DJjFJDPPC2,E,"[{'role': 'speaker', 'text': 'Two triangles for a body, pointing left, leg stretched out right, other foot completely down', 'playerId': '7873fQ46q5WbGoifc'}]",53,20.424,2_thick,26
906,11053,6_player,thin,round_6,1,F,s3guGBwvgJRQvf9vF,F,"[{'role': 'speaker', 'text': 'sitting facing left knees up', 'playerId': 'gS7Cu8RzJd6nj9ku3'}]",55,11.053,6_thin,27
906,17802,2_player,thin,round_1,1,J,boh4YsJCatyo5uyE8,J,"[{'role': 'speaker', 'text': 'figure standing in half square shape facing right', 'playerId': '9paA9FyyYx2HEvQQD'}]",57,17.802,2_thin,28
906,5246,2_player,thin,round_1,1,F,53uTmg2fquiNWgaK9,F,"[{'role': 'speaker', 'text': 'sitting', 'playerId': '8TCXBa5TcMjPDEKv6'}]",59,5.246,2_thin,29
906,17509,6_player,thin,round_1,0,J,s3guGBwvgJRQvf9vF,B,"[{'role': 'speaker', 'text': 'a small and chubby kid wearing a cape and holding an arm out', 'playerId': 'xaG49m2wuoEz9eEcw'}]",61,17.509,6_thin,30
906,10810,2_player,thin,round_1,1,A,tac8f7dPdRJLBrSMh,A,"[{'role': 'speaker', 'text': 'I am lifting one leg and have a box on my back and a beak mask on', 'playerId': '6WniY398mGwu8Gq6w'}]",63,10.81,2_thin,31
906,17326,2_player,thin,round_6,0,H,tac8f7dPdRJLBrSMh,K,"[{'role': 'speaker', 'text': 'facing forward, kneeling with legs slightly to the east', 'playerId': 'K55iXDsX2B8hnentx'}]",65,17.326,2_thin,32
906,12335,2_player,thin,round_1,1,A,hqPW2hTEhEE5ANa9u,A,"[{'role': 'speaker', 'text': '2 legs one is off the ground both feet facing left and head tilted back', 'playerId': 'vKzSKrkQii668Ft98'}]",67,12.335,2_thin,33
906,3297,2_player,thick,round_6,0,H,GPXXTJBweJggYMYrF,E,"[{'role': 'speaker', 'text': 'sleeping', 'playerId': 'ZLmRMKZzibrTNB5sv'}]",69,3.297,2_thick,34
906,2592,6_player,thick,round_6,1,I,8ukdn7m9ypXhxpPR4,I,"[{'role': 'speaker', 'text': 'facing left standing on one foot, right foot in the air and is a small triangle', 'playerId': 'WsHSgaSjxKhCm57LZ'}, {'role': 'listener', 'text': 'skater', 'playerId': 'N7qTc2Ayd38hahFsw'}]",71,2.592,6_thick,35
906,6919,2_player,thick,round_1,1,F,Ccv6vkdmTr6cnNfC5,F,"[{'role': 'speaker', 'text': 'It looks like someone sitting on their butt with their arms at their side', 'playerId': 'osdJLtm3pRz9sdzmK'}]",73,6.919,2_thick,36
906,1448,6_player,thin,round_1,0,L,FEPXqBHpf4Q5CfCju,J,"[{'role': 'speaker', 'text': 'a person kneeling down', 'playerId': '6Kav3RXmngLqqGgzb'}]",75,1.448,6_thin,37
906,2484,2_player,thick,round_1,0,G,XaYo7mGCsyJKW3w4Z,E,"[{'role': 'speaker', 'text': 'one you picked last time', 'playerId': 'NYD7GMoHm3TagmyTN'}]",77,2.484,2_thick,38
906,7115,6_player,thick,round_6,0,C,5wn4MiopXyfXuTxG9,G,"[{'role': 'speaker', 'text': 'This figure is raising its arms', 'playerId': 'HJoHFMvp6qPSD2pXk'}]",79,7.115,6_thick,39
906,12056,2_player,thin,round_6,0,G,dL448N8edL6crs7PZ,C,"[{'role': 'speaker', 'text': 'hockey stick on the bottom left', 'playerId': '5jQF46t4zK4xqDwJM'}]",81,12.056,2_thin,40
906,2725,2_player,thin,round_1,1,J,Y334RjwcFj2mS2S3Z,J,"[{'role': 'speaker', 'text': ""it's the 'fattest' shape"", 'playerId': 'KYetgFxYcp23ds36M'}, {'role': 'speaker', 'text': 'as in the one that is the most condensed', 'playerId': 'KYetgFxYcp23ds36M'}]",83,2.725,2_thin,41
906,6778,6_player,thin,round_6,1,I,2nZ79PA8WMtYNqLrS,I,"[{'role': 'speaker', 'text': 'Karate!!', 'playerId': 'JGqkYg6ZyfkmWfboq'}]",85,6.778,6_thin,42
906,18690,2_player,thin,round_6,1,K,mfHF5dsRBFvoJKmv7,K,"[{'role': 'speaker', 'text': 'kneeling to right', 'playerId': 'RBMaXWoaFLp3JrbMZ'}, {'role': 'speaker', 'text': 'arms out', 'playerId': 'RBMaXWoaFLp3JrbMZ'}, {'role': 'speaker', 'text': 'diamond head straight', 'playerId': 'RBMaXWoaFLp3JrbMZ'}, {'role': 'speaker', 'text': 'legs up behind back', 'playerId': 'RBMaXWoaFLp3JrbMZ'}]",87,18.69,2_thin,43
906,6070,2_player,thick,round_1,1,F,RskCwDjkZEjiudJJz,F,"[{'role': 'speaker', 'text': 'man sitting with head down and knees drawn toward chest', 'playerId': 'ABqfwiuk73wc2AWAi'}]",89,6.07,2_thick,44
906,4298,2_player,thin,round_1,1,D,53uTmg2fquiNWgaK9,D,"[{'role': 'speaker', 'text': 'standing', 'playerId': '8TCXBa5TcMjPDEKv6'}, {'role': 'speaker', 'text': 'holding something on left', 'playerId': '8TCXBa5TcMjPDEKv6'}]",91,4.298,2_thin,45
906,7723,6_player,thick,round_6,1,A,QzDZ9idpFkW6nHuCq,A,"[{'role': 'speaker', 'text': 'head leaned way right', 'playerId': '64rzpC4x4MeQZbRPz'}, {'role': 'speaker', 'text': 'one foot up to left', 'playerId': '64rzpC4x4MeQZbRPz'}]",93,7.723,6_thick,46
906,9228,6_player,thick,round_6,1,D,ZJwZxaeBDE6xqPFAv,D,"[{'role': 'speaker', 'text': 'Pointing LEFT, Flat right', 'playerId': 'e9g86kP6Wh4MDo4hN'}]",95,9.228,6_thick,47
906,4704,6_player,thick,round_1,1,G,C6NxFhmDQvNgE2P68,G,"[{'role': 'speaker', 'text': 'Triangle foot to the right Square head leaning to the left Body looks bent at the knee One arm in the air on the right side', 'playerId': 'CsbCqNrAHc5ueS2rd'}]",97,4.704,6_thick,48
906,12185,2_player,thin,round_6,0,B,9wbjtnF8xe5ymzikg,J,"[{'role': 'speaker', 'text': 'mouse with square on top', 'playerId': 'qLkJsktQgoDo4ZNeR'}]",99,12.185,2_thin,49
906,11975,6_player,thick,round_1,0,F,QG9fkFCXKj6g9mjR5,H,"[{'role': 'speaker', 'text': 'Body fully covered with legs to right with head slightly to left', 'playerId': 'u3bWoHe66Wu9yh7ka'}, {'role': 'speaker', 'text': 'Legs on left', 'playerId': 'u3bWoHe66Wu9yh7ka'}, {'role': 'listener', 'text': 'Like they have a dress', 'playerId': '6dv6K8Q6C7Jm9oEpc'}, {'role': 'speaker', 'text': 'No dress', 'playerId': 'u3bWoHe66Wu9yh7ka'}, {'role': 'listener', 'text': 'Do they look a bit like a potato', 'playerId': '6dv6K8Q6C7Jm9oEpc'}, {'role': 'speaker', 'text': 'No potato', 'playerId': 'u3bWoHe66Wu9yh7ka'}]",101,11.975,6_thick,50
906,15064,6_player,thin,round_1,1,K,GfdodQMJHhNodveqQ,K,"[{'role': 'speaker', 'text': 'select the figure which is fully kneeling down facing right but where only one arm can be seen because the figure is in profile', 'playerId': 'mJoMeCNLNBvXsdrNr'}]",103,15.064,6_thin,51
906,6416,6_player,thin,round_6,1,H,TfkrsqMn78kJbqqgg,H,"[{'role': 'speaker', 'text': 'Chili pepper', 'playerId': 'JFN3bSH22ktZ5MvDg'}]",105,6.416,6_thin,52
906,3069,6_player,thin,round_6,1,F,hycXgPznSi3hzjcfX,F,"[{'role': 'speaker', 'text': 'Sitting facing left', 'playerId': 'TWXWnAChyvw94LtaH'}]",107,3.069,6_thin,53
906,1846,2_player,thick,round_6,1,I,v38FZLkyFdEaiDQeh,I,"[{'role': 'speaker', 'text': 'karate', 'playerId': 'CJTaDhWCSTLmWfMoR'}]",109,1.846,2_thick,54
906,12777,2_player,thin,round_1,0,B,G5HKftuSE5K4WT9bH,G,"[{'role': 'speaker', 'text': 'sitting position, one hand at either side, almost like a bird', 'playerId': 'NwkXJPNXbDe4eSo4o'}, {'role': 'speaker', 'text': 'two large triangles as arms', 'playerId': 'NwkXJPNXbDe4eSo4o'}, {'role': 'speaker', 'text': 'looks like he is trying to fly', 'playerId': 'NwkXJPNXbDe4eSo4o'}, {'role': 'speaker', 'text': 'head facing right', 'playerId': 'NwkXJPNXbDe4eSo4o'}, {'role': 'speaker', 'text': 'looks like arms are stretched outwards', 'playerId': 'NwkXJPNXbDe4eSo4o'}]",111,12.777,2_thin,55
906,4919,2_player,thin,round_6,1,H,3yh8YmunGyJ3aQmWd,H,"[{'role': 'speaker', 'text': 'snowman', 'playerId': 'jYjCgmiAtd4SvCC8t'}]",113,4.919,2_thin,56
906,2603,6_player,thick,round_6,0,E,2p26ok9CFsRGJGceh,F,"[{'role': 'speaker', 'text': 'No sleeping on that sermon! 5 5 This is sad rabbit', 'playerId': 'wcqH3MeeC8KicnQmh'}]",115,2.603,6_thick,57
906,7568,2_player,thin,round_6,0,J,bio32nY9h7AZxfcX3,C,"[{'role': 'speaker', 'text': 'straight back arm right', 'playerId': 'Cgsh6SKbwvHuM8nWk'}]",117,7.568,2_thin,58
906,2628,2_player,thick,round_6,0,F,S229J9M75mRCjm23C,E,"[{'role': 'speaker', 'text': 'someone sat on floor with knees up', 'playerId': 'z3Sm7qarDfdfnz8RN'}, {'role': 'speaker', 'text': 'facing left', 'playerId': 'z3Sm7qarDfdfnz8RN'}]",119,2.628,2_thick,59
906,7155,2_player,thin,round_1,0,B,qkSXf88gZ3ZQNgBF9,A,"[{'role': 'speaker', 'text': 'It has a diamond and a triangle on its head on the right,', 'playerId': '4cnwq6uSjCn5XHEEn'}]",121,7.155,2_thin,60
906,3170,6_player,thick,round_1,1,F,yuahmMCJwB5LLGYHB,F,"[{'role': 'speaker', 'text': 'it looks like someone sitting down with their feet out in front of them', 'playerId': 'WLChjCXuws93NcRaQ'}]",123,3.17,6_thick,61
906,23906,6_player,thick,round_1,1,I,QkKavPsKXNH5uJzrs,I,"[{'role': 'speaker', 'text': 'it looks like it is a person slightly bent forward with two arms facing the left', 'playerId': 'ySkkTvw6MWq2jN8sB'}, {'role': 'speaker', 'text': 'and a triangle facing straight up as a tail', 'playerId': 'ySkkTvw6MWq2jN8sB'}, {'role': 'speaker', 'text': 'only one leg is showing', 'playerId': 'ySkkTvw6MWq2jN8sB'}]",125,23.906,6_thick,62
906,6179,6_player,thin,round_1,0,A,XbZk9j8EZFLzxLNGC,I,"[{'role': 'speaker', 'text': 'man turned left raising up his right leg', 'playerId': 'xAo494dnYpcdA5GYh'}]",127,6.179,6_thin,63
906,10210,2_player,thick,round_1,1,D,MM87KaCiwe9vRcvbi,D,"[{'role': 'speaker', 'text': 'looks like someone standing at a podium with their back to you', 'playerId': '3DR3LKCnkxsbbDYdm'}, {'role': 'speaker', 'text': 'podium is on the left', 'playerId': '3DR3LKCnkxsbbDYdm'}, {'role': 'speaker', 'text': 'reminds me of a graduation gown', 'playerId': '3DR3LKCnkxsbbDYdm'}]",129,10.21,2_thick,64
902,26868,2_player,thick,round_1,1,I,3LD6SkQZcPSYXHE9W,I,"[{'role': 'speaker', 'text': 'person standing, reaching two arms forward, standing on one leg with the other pointing backwards', 'playerId': 'LyQyeWbntRWk8ms69'}]",3,26.868,2_thick,1
902,7927,6_player,thick,round_1,1,C,C6NxFhmDQvNgE2P68,C,"[{'role': 'speaker', 'text': 'Leaning left Diamond head Two arms in the air', 'playerId': 'CsbCqNrAHc5ueS2rd'}, {'role': 'listener', 'text': 'is one leg up in the air', 'playerId': 'kBN3ox5uxrAcMeqDe'}, {'role': 'speaker', 'text': 'No legs', 'playerId': 'CsbCqNrAHc5ueS2rd'}]",5,7.927,6_thick,2
902,5054,6_player,thick,round_6,1,K,awMBFij9Yo8w2nA5K,K,"[{'role': 'speaker', 'text': 'Fully kneeling with arms out to the right to receive something', 'playerId': 'tFxPDpxwB3TJg5B8c'}]",7,5.054,6_thick,3
902,15123,6_player,thick,round_1,0,L,TNRYprBpNcgCrb2HF,H,"[{'role': 'listener', 'text': 'i selected to fast lol', 'playerId': 'YR4FANKP3HF94ob8Y'}, {'role': 'listener', 'text': 'haha they all look a bit humpbacked and slumpy to me', 'playerId': 'G4HK8nC7P4gF4WNYv'}, {'role': 'speaker', 'text': 'Two more to go guys - well done for those who keep getting it right', 'playerId': 'ZBAXeNd9hoDrFHWhf'}, {'role': 'speaker', 'text': 'The next target image shows a person about to kneel (bent) with both knees and facing to the right when facing the image', 'playerId': 'ZBAXeNd9hoDrFHWhf'}]",9,15.123,6_thick,4
902,14781,6_player,thick,round_1,0,H,AM32EpWzbjLmWKqQX,D,"[{'role': 'speaker', 'text': 'Solid black, square on top', 'playerId': 'ipD6BWixZJPo2Pigc'}, {'role': 'speaker', 'text': 'Looks like a pillar with a square on top', 'playerId': 'ipD6BWixZJPo2Pigc'}, {'role': 'speaker', 'text': 'Quite thin', 'playerId': 'ipD6BWixZJPo2Pigc'}]",11,14.781,6_thick,5
902,13568,6_player,thin,round_6,0,D,JnYAkqq7mqk9Gxdse,E,"[{'role': 'speaker', 'text': 'tophat', 'playerId': 'q4jr4TxgQyxb3TBoH'}]",13,13.568,6_thin,6
902,4746,2_player,thin,round_1,1,I,8cy8kYpZbm2SxaB38,I,"[{'role': 'speaker', 'text': 'Choose the one with a person standing on 1 leg and both arms pointing left', 'playerId': 'TtCfEppbP8dBNPMJf'}]",15,4.746,2_thin,7
902,4467,2_player,thick,round_6,0,E,4bDDi23d6D8SJkrgQ,H,"[{'role': 'speaker', 'text': 'bun', 'playerId': 'P5nFedWBmEvAmd8CD'}]",17,4.467,2_thick,8
902,11860,2_player,thick,round_1,1,A,iccbYJSQjLTn6eLYG,A,"[{'role': 'speaker', 'text': 'this is like a karateka about to launch a kick, his head points back to the right but his body faces to the left He has his right leg raised up and his left leg resting on the ground', 'playerId': '5Hf9XL6EddeSLkxR5'}]",19,11.86,2_thick,9
902,4134,6_player,thick,round_1,1,F,idfdowLZKpkzB8ypa,F,"[{'role': 'speaker', 'text': 'This looks like a person sitting down on the floor with leg bent upwards', 'playerId': 'hWLbCy7ApJfJBtYmh'}, {'role': 'speaker', 'text': 'sitting', 'playerId': 'hWLbCy7ApJfJBtYmh'}, {'role': 'speaker', 'text': 'Knees bent upwards', 'playerId': 'hWLbCy7ApJfJBtYmh'}]",21,4.134,6_thick,10
902,10509,2_player,thin,round_6,0,C,PCRgk3gvjjXXkMKqF,G,"[{'role': 'speaker', 'text': 'Dancing man', 'playerId': 'HrxvJAFPtJCGLf2Ez'}]",23,10.509,2_thin,11
902,2335,2_player,thick,round_6,1,E,8rdFCKG2CvuTrLnAM,E,"[{'role': 'speaker', 'text': 'rabbit', 'playerId': 'sXCiFPWdDG3oRZb4u'}]",25,2.335,2_thick,12
902,5501,2_player,thick,round_6,0,H,v38FZLkyFdEaiDQeh,G,"[{'role': 'speaker', 'text': 'yes agreed! this was fun! yogi', 'playerId': 'CJTaDhWCSTLmWfMoR'}]",27,5.501,2_thick,13
902,6931,6_player,thin,round_1,1,E,vfBNc7APPeQqXwJep,E,"[{'role': 'speaker', 'text': 'has two triangles at the top followed by a square at the bottom with two triangles at the bottom', 'playerId': 'AbDh35xzSqzppDyPx'}, {'role': 'speaker', 'text': 'the top looks like a rabbit', 'playerId': 'AbDh35xzSqzppDyPx'}]",29,6.931,6_thin,14
902,6957,6_player,thick,round_6,0,H,QG9fkFCXKj6g9mjR5,G,"[{'role': 'speaker', 'text': 'Body tucked in with leg to right', 'playerId': 'u3bWoHe66Wu9yh7ka'}, {'role': 'listener', 'text': 'Knees raised', 'playerId': '6dv6K8Q6C7Jm9oEpc'}]",31,6.957,6_thick,15
902,8037,2_player,thin,round_1,1,E,82uZ3jADN8nmgw8Ju,E,"[{'role': 'speaker', 'text': 'Looks like an Indian sitting with a headdress on', 'playerId': 'Qovq3FampmPKnF3SK'}, {'role': 'speaker', 'text': 'Sitting with their knees up and two triangles on head', 'playerId': 'Qovq3FampmPKnF3SK'}]",33,8.037,2_thin,16
902,7527,6_player,thick,round_1,1,K,6ikro5aNu98qHGGFL,K,"[{'role': 'speaker', 'text': 'shadow kneeling down 2 triangle shapes on the top blended together', 'playerId': 'Mm4ut74JJKd55WcMT'}, {'role': 'speaker', 'text': 'feet behind as kneeling', 'playerId': 'Mm4ut74JJKd55WcMT'}, {'role': 'listener', 'text': 'Facing left or right', 'playerId': 'pjjBqM9hbpSxtFPhF'}, {'role': 'speaker', 'text': 'right', 'playerId': 'Mm4ut74JJKd55WcMT'}, {'role': 'listener', 'text': 'so feet to the left', 'playerId': 'NeeLki6vCQP4BXAQp'}, {'role': 'listener', 'text': 'on knees or still on ""feet ""', 'playerId': 'NeeLki6vCQP4BXAQp'}, {'role': 'speaker', 'text': ""feet looks like it's behind him"", 'playerId': 'Mm4ut74JJKd55WcMT'}]",35,7.527,6_thick,17
902,3938,2_player,thick,round_1,1,H,JCq6bt8bjpBggFPyM,H,"[{'role': 'speaker', 'text': 'looks like a baby swaddled', 'playerId': '7KhipcCnuF2SDDKvi'}, {'role': 'speaker', 'text': 'head in middle', 'playerId': '7KhipcCnuF2SDDKvi'}, {'role': 'speaker', 'text': 'feet sticking out on right', 'playerId': '7KhipcCnuF2SDDKvi'}, {'role': 'speaker', 'text': 'with no arms', 'playerId': '7KhipcCnuF2SDDKvi'}]",37,3.938,2_thick,18
902,6199,2_player,thick,round_6,1,L,Ccv6vkdmTr6cnNfC5,L,"[{'role': 'speaker', 'text': 'Wheee!!! Good game, partner Partially kneeling, facing right, praying begging', 'playerId': 'osdJLtm3pRz9sdzmK'}]",39,6.199,2_thick,19
902,6778,6_player,thin,round_6,1,J,RBnjoHwwmyq7ojwD7,J,"[{'role': 'speaker', 'text': 'the candle with some of the right hand side missing', 'playerId': '7emp8ahpNwF3W53zc'}]",41,6.778,6_thin,20
902,8778,6_player,thick,round_6,0,H,awMBFij9Yo8w2nA5K,F,"[{'role': 'speaker', 'text': 'Car seat again', 'playerId': 'tFxPDpxwB3TJg5B8c'}]",43,8.778,6_thick,21
902,4365,6_player,thin,round_1,1,K,tWcPGsuGdiD2J7Nrw,K,"[{'role': 'speaker', 'text': 'someone a church looking on their knees to right', 'playerId': '4YpQbkXrBFLorgych'}, {'role': 'speaker', 'text': 'on knees looking right', 'playerId': '4YpQbkXrBFLorgych'}]",45,4.365,6_thin,22
902,2240,2_player,thin,round_6,1,I,Aq5QevmQACnfqeuj4,I,"[{'role': 'speaker', 'text': 'It is standing on one leg, with the other behind it', 'playerId': 'QWnE4mnYS4vBNFQdu'}]",47,2.24,2_thin,23
902,2090,6_player,thin,round_6,1,H,tGuW7nukBHY72yfXn,H,"[{'role': 'speaker', 'text': 'Man without limbs', 'playerId': 'qatayjkTEqMM6STZS'}]",49,2.09,6_thin,24
902,21073,6_player,thin,round_1,0,B,vHHRDD5s36Ya2xGvS,G,"[{'role': 'speaker', 'text': 'diamond at top to right with triangle attached at point hanging down right back Line from bottom point of diamond going to left in a straight line , no legs showing diamond at bottom left attached to main block, no quite a straight line at bottom', 'playerId': '6gtkQGMiynreczDCs'}, {'role': 'speaker', 'text': 'point', 'playerId': '6gtkQGMiynreczDCs'}]",51,21.073,6_thin,25
902,6857,6_player,thick,round_1,1,F,BPDJ8DfY2oJw6jGZn,F,"[{'role': 'speaker', 'text': 'The one sitting down facing left with his legs on the floor in front of him', 'playerId': 'mv8wwWEYbFzbrrwmR'}, {'role': 'speaker', 'text': 'Sitting on his butt', 'playerId': 'mv8wwWEYbFzbrrwmR'}]",53,6.857,6_thick,26
902,4272,2_player,thick,round_6,1,H,FmuScBvZuEj2zegE2,H,"[{'role': 'speaker', 'text': 'no arms', 'playerId': 'pyBP4wTvPc2uhWfZ9'}]",55,4.272,2_thick,27
902,7733,2_player,thick,round_1,1,D,RskCwDjkZEjiudJJz,D,"[{'role': 'speaker', 'text': 'man standing straight with looks like bowl in hands', 'playerId': 'ABqfwiuk73wc2AWAi'}]",57,7.733,2_thick,28
902,4308,2_player,thin,round_6,1,F,6ZtMrReWRYFFydpHK,F,"[{'role': 'speaker', 'text': 'a person slouched on the ground facing left', 'playerId': 'ppdupRYraz4gj94gi'}]",59,4.308,2_thin,29
902,4897,6_player,thin,round_6,1,I,JnYAkqq7mqk9Gxdse,I,"[{'role': 'speaker', 'text': 'ballerina', 'playerId': 'q4jr4TxgQyxb3TBoH'}]",61,4.897,6_thin,30
902,1961,6_player,thin,round_6,1,H,w3iX3WeXrGQDWqzwf,H,"[{'role': 'speaker', 'text': 'No arms, diamond head in the middle', 'playerId': 'qr7WFkkaeMgxBYpzE'}]",63,1.961,6_thin,31
902,7713,2_player,thin,round_6,1,C,GGz5Zb58tHpG8X5z7,C,"[{'role': 'speaker', 'text': 'david seaman', 'playerId': 'zMrgbynyhLhqT5X3C'}]",65,7.713,2_thin,32
902,8396,2_player,thin,round_6,1,A,boh4YsJCatyo5uyE8,A,"[{'role': 'speaker', 'text': 'character kicking a ball with a backpack on facing left', 'playerId': 'ox7WRy4visdQvqrao'}]",67,8.396,2_thin,33
902,4033,6_player,thin,round_1,1,H,FZwFxwkA8H6vAYfnq,H,"[{'role': 'speaker', 'text': 'The person is sat down, Like they are facing towards the camera', 'playerId': 'ycAYQisKha5rc7nSp'}]",69,4.033,6_thin,34
902,11958,2_player,thin,round_1,1,B,HQCyESfw7Bwg5LM3Q,B,"[{'role': 'speaker', 'text': 'person with both arms up, one to the left and one to the right, with legs on either side, like doing a lunge', 'playerId': 'ijqA9EF3MtMyzT6Ts'}, {'role': 'speaker', 'text': 'facing right', 'playerId': 'ijqA9EF3MtMyzT6Ts'}]",71,11.958,2_thin,35
902,5429,6_player,thin,round_6,1,H,hZ2XNN9DzrhuXEEKk,H,"[{'role': 'speaker', 'text': 'i', 'playerId': 'eTvCDLo3A5r4i5B6B'}]",73,5.429,6_thin,36
902,2541,2_player,thick,round_1,1,E,pdC8wpWApxQxy97ei,E,"[{'role': 'speaker', 'text': 'person sat looking right', 'playerId': 'epgkyGmaqtcw2wDNc'}, {'role': 'speaker', 'text': 'has triangle ears like a rabbit', 'playerId': 'epgkyGmaqtcw2wDNc'}]",75,2.541,2_thick,37
902,5774,2_player,thick,round_6,0,H,ReHEztHvdLg42SEGu,F,"[{'role': 'speaker', 'text': 'a person sitting upright, back facing us legs slightly turned to the side', 'playerId': 'dRD2qauYBz3is79vB'}]",77,5.774,2_thick,38
902,5163,6_player,thin,round_6,1,A,rg6f4GNbTus2Lzao6,A,"[{'role': 'speaker', 'text': ""looks like a penguin with a box on it's back Standing on one leg"", 'playerId': 'Nk9LjuHnsQ4MqkZjQ'}]",79,5.163,6_thin,39
902,4366,6_player,thin,round_1,1,E,2gkxKTcPdQews5qTX,E,"[{'role': 'speaker', 'text': 'the top has two triangles on top of a square the body is triangle and the slope side has a break in it', 'playerId': 'yN5pFmHQdR2zzStyt'}]",81,4.366,6_thin,40
902,2842,2_player,thin,round_1,1,I,ZvRBRbEkkuq4N3GgG,I,"[{'role': 'speaker', 'text': 'it looks like a figure balancing on one leg facing left with a diamond on its head', 'playerId': 'nGLminojPrGGF2oLv'}]",83,2.842,2_thin,41
902,1872,2_player,thin,round_1,1,E,xPDpppkjxby6SWWQE,E,"[{'role': 'speaker', 'text': 'the guy looks like a rabbit--he has two ears coming out', 'playerId': 'XRm49YNiQZ82knkDb'}]",85,1.872,2_thin,42
902,10875,6_player,thick,round_6,0,F,QG9fkFCXKj6g9mjR5,E,"[{'role': 'speaker', 'text': 'Knees bent upwards with head in middle diagonal to left', 'playerId': 'u3bWoHe66Wu9yh7ka'}]",87,10.875,6_thick,43
902,4023,2_player,thin,round_1,0,G,nK7PQshcrKCYzjoeX,B,"[{'role': 'speaker', 'text': 'Sun', 'playerId': 'tnLusw6iphaXoFCFR'}, {'role': 'speaker', 'text': 'Lion King', 'playerId': 'tnLusw6iphaXoFCFR'}]",89,4.023,2_thin,44
902,9440,6_player,thin,round_1,1,L,tWcPGsuGdiD2J7Nrw,L,"[{'role': 'speaker', 'text': 'looking to right half knelt hands out', 'playerId': '4YpQbkXrBFLorgych'}, {'role': 'speaker', 'text': 'hands out to right', 'playerId': '4YpQbkXrBFLorgych'}]",91,9.44,6_thin,45
902,3848,6_player,thick,round_6,1,I,244HZEA6vDgTcLdLs,I,"[{'role': 'speaker', 'text': 'Ballet post', 'playerId': 'qqFaAChg6PZNLvbix'}]",93,3.848,6_thick,46
902,11599,2_player,thick,round_6,0,D,NsmcbYSqXcL5enm6A,L,"[{'role': 'speaker', 'text': 'Standing with his hands out for an offering', 'playerId': 'fWaxgEqvQNyaoygYJ'}]",95,11.599,2_thick,47
902,4751,2_player,thick,round_6,0,G,3LD6SkQZcPSYXHE9W,E,"[{'role': 'speaker', 'text': 'mouse with knees bent', 'playerId': 'LyQyeWbntRWk8ms69'}]",97,4.751,2_thick,48
902,1457,6_player,thick,round_6,1,H,QeHxf8rJXN8MCSKYR,H,"[{'role': 'speaker', 'text': 'blob', 'playerId': 'NxLjuiDi5cuFnLeTt'}]",99,1.457,6_thick,49
902,4400,6_player,thick,round_6,0,I,XPDgovNnwsyppFmAf,A,"[{'role': 'speaker', 'text': 'skater', 'playerId': 'gwt4PNWvsk9BAK8Ed'}]",101,4.4,6_thick,50
902,3998,2_player,thin,round_6,1,F,22dyGMRgestp8u5Lc,F,"[{'role': 'speaker', 'text': 'relaxing in park', 'playerId': 'zbNWfn7CxR9SSytWA'}]",103,3.998,2_thin,51
902,13214,6_player,thick,round_1,1,A,8ukdn7m9ypXhxpPR4,A,"[{'role': 'speaker', 'text': ""one leg is up all legs are on the left the head looks like it's on the side the hands are pointy"", 'playerId': 'HjETYsPdB49PboNEN'}, {'role': 'speaker', 'text': 'the triangle hand is pointed at the bottom', 'playerId': 'HjETYsPdB49PboNEN'}]",105,13.214,6_thick,52
902,4211,6_player,thin,round_1,1,H,dh6tkArXHwNp8Aru4,H,"[{'role': 'speaker', 'text': 'KNEELING WITH BACK TO YOU', 'playerId': 'bPKaFxCT9xHgbCHWZ'}, {'role': 'speaker', 'text': 'LIKE KNEELING AT A GRAVE', 'playerId': 'bPKaFxCT9xHgbCHWZ'}]",107,4.211,6_thin,53
902,1705,2_player,thin,round_6,1,A,ajePseikJxYBmnFiL,A,"[{'role': 'speaker', 'text': 'kicking', 'playerId': 'mvTdk2anEmSmbacGF'}]",109,1.705,2_thin,54
902,2926,2_player,thick,round_1,0,L,XJWjbBteCLNDAtjaR,K,"[{'role': 'speaker', 'text': 'person praying', 'playerId': 'REH8sf5fLW24xLJLe'}, {'role': 'speaker', 'text': 'bending at knees', 'playerId': 'REH8sf5fLW24xLJLe'}, {'role': 'speaker', 'text': 'serving', 'playerId': 'REH8sf5fLW24xLJLe'}]",111,2.926,2_thick,55
902,7557,2_player,thick,round_1,0,B,XJWjbBteCLNDAtjaR,H,"[{'role': 'speaker', 'text': 'looks like a mouse head, you selected it last', 'playerId': 'REH8sf5fLW24xLJLe'}]",113,7.557,2_thick,56
902,3056,6_player,thin,round_1,1,I,MR4xnrE8c4oCHmZX2,I,"[{'role': 'speaker', 'text': 'stood on one leg looking left', 'playerId': 'muoR38p6HFjao4cKu'}]",115,3.056,6_thin,57
902,11513,6_player,thick,round_1,0,J,6ikro5aNu98qHGGFL,E,"[{'role': 'speaker', 'text': 'square body standing up diamond for the head facing right', 'playerId': 'Mm4ut74JJKd55WcMT'}, {'role': 'speaker', 'text': 'feet and arms to the right as well', 'playerId': 'Mm4ut74JJKd55WcMT'}]",117,11.513,6_thick,58
902,4769,2_player,thin,round_1,1,C,9wbjtnF8xe5ymzikg,C,"[{'role': 'speaker', 'text': 'This looks like someone with his arms wide apart His head is on the left side of the frame, but not the same picture as last time', 'playerId': '3R3qpxKrLougMSfGd'}]",119,4.769,2_thin,59
902,7264,6_player,thin,round_6,1,A,3zuSR5MLLHFo57ngd,A,"[{'role': 'speaker', 'text': 'this one is standing and facing the left direction', 'playerId': 'js59gnvFHgHLEnkuL'}, {'role': 'speaker', 'text': 'there right foot is on the ground but the left one is up', 'playerId': 'js59gnvFHgHLEnkuL'}, {'role': 'speaker', 'text': 'there left foot is raised', 'playerId': 'js59gnvFHgHLEnkuL'}, {'role': 'speaker', 'text': 'there head is down', 'playerId': 'js59gnvFHgHLEnkuL'}]",121,7.264,6_thin,60
902,8255,2_player,thin,round_6,0,E,oJFB5dkDNtRxZNzec,A,"[{'role': 'speaker', 'text': 'hat', 'playerId': '4AsFJzDE4jwjApMjQ'}]",123,8.255,2_thin,61
902,4225,2_player,thick,round_1,1,C,v38FZLkyFdEaiDQeh,C,"[{'role': 'speaker', 'text': 'looks like someone leaning to the left of the screen with both arms raised up almost looks like someone who is angry lol or saying what the heck', 'playerId': 'CJTaDhWCSTLmWfMoR'}]",125,4.225,2_thick,62
902,8606,2_player,thin,round_1,1,I,Y334RjwcFj2mS2S3Z,I,"[{'role': 'speaker', 'text': ""It's the one that looks like a guy kicking his right back leg in the air"", 'playerId': 'KYetgFxYcp23ds36M'}]",127,8.606,2_thin,63
902,14532,6_player,thick,round_6,1,D,5wn4MiopXyfXuTxG9,D,"[{'role': 'speaker', 'text': 'This figure is completely upright with the squarish limb to the front', 'playerId': 'HJoHFMvp6qPSD2pXk'}]",129,14.532,6_thick,64
892,19576,2_player,thick,round_1,1,A,v38FZLkyFdEaiDQeh,A,"[{'role': 'speaker', 'text': ""head goes to the right, tilted down a little, but the legs are to the left, one on ground flat, the other one raised up like a kick I don't know what is going on with the upper body"", 'playerId': 'CJTaDhWCSTLmWfMoR'}]",3,19.576,2_thick,1
892,22178,2_player,thick,round_1,1,L,p8CZhTq5mEiuypAfk,L,"[{'role': 'speaker', 'text': 'Person in prayer position facing the right Looks a bit like a zig zag bottom half', 'playerId': 'mGtkMxGiXXs6j2cm3'}, {'role': 'listener', 'text': 'an s shape can be seen', 'playerId': 'Z6ZGbYPDeoWmAvTgH'}]",5,22.178,2_thick,2
892,21146,6_player,thin,round_6,1,I,E8n7PT7sEpCcbb7AD,I,"[{'role': 'speaker', 'text': 'skit', 'playerId': 'NauJW3wAPr54G6iB9'}, {'role': 'speaker', 'text': 'fish mouth to the left', 'playerId': 'NauJW3wAPr54G6iB9'}, {'role': 'speaker', 'text': 'tail with one leg standing', 'playerId': 'NauJW3wAPr54G6iB9'}, {'role': 'speaker', 'text': 'square on a fish mouth', 'playerId': 'NauJW3wAPr54G6iB9'}]",7,21.146,6_thin,3
892,27867,2_player,thin,round_1,0,L,QTLcapnjShjWX3s4t,D,"[{'role': 'speaker', 'text': 'square head rand rectangle legs', 'playerId': '7ycbvgZt9bc9A7AJj'}, {'role': 'speaker', 'text': 'square head and rectangle legs', 'playerId': '7ycbvgZt9bc9A7AJj'}, {'role': 'speaker', 'text': 'square head rand rectangle legs and triangle hands', 'playerId': '7ycbvgZt9bc9A7AJj'}]",9,27.867,2_thin,4
892,5677,2_player,thin,round_1,1,E,Y334RjwcFj2mS2S3Z,E,"[{'role': 'speaker', 'text': 'like a rabbit with its face pointing towards the right', 'playerId': 'KYetgFxYcp23ds36M'}]",11,5.677,2_thin,5
892,17829,2_player,thick,round_1,1,A,xXhypRAC7tRGakzHn,A,"[{'role': 'speaker', 'text': 'One leg up and one hand up', 'playerId': 'LK6nCiq4mWKCExxjc'}]",13,17.829,2_thick,6
892,12367,6_player,thin,round_1,1,L,w3iX3WeXrGQDWqzwf,L,"[{'role': 'speaker', 'text': 'looks like they are ABOUT to kneel down', 'playerId': 'PbHbMMmhuqT4KcqhB'}, {'role': 'speaker', 'text': 'facing right', 'playerId': 'PbHbMMmhuqT4KcqhB'}, {'role': 'speaker', 'text': 'holding something pointy on the right', 'playerId': 'PbHbMMmhuqT4KcqhB'}]",15,12.367,6_thin,7
892,9635,2_player,thin,round_1,1,I,82uZ3jADN8nmgw8Ju,I,"[{'role': 'speaker', 'text': 'skating to the left arms out one leg way up', 'playerId': 'Qovq3FampmPKnF3SK'}]",17,9.635,2_thin,8
892,11393,2_player,thick,round_1,1,B,xvPneq3RbziGdEArC,B,"[{'role': 'speaker', 'text': ""They're kneeling on the ground with one leg out, with both their arms held out to the side"", 'playerId': 'yFk7LEDg8Edgyx5Gd'}]",19,11.393,2_thick,9
892,17522,6_player,thick,round_1,0,K,5wn4MiopXyfXuTxG9,I,"[{'role': 'speaker', 'text': 'Figure standing upright with one limb extended with a point in the back', 'playerId': 'HJoHFMvp6qPSD2pXk'}, {'role': 'speaker', 'text': 'the limb is extended forward', 'playerId': 'HJoHFMvp6qPSD2pXk'}]",21,17.522,6_thick,10
892,5440,2_player,thin,round_6,1,J,MgTftLm4vyzDj8Tv6,J,"[{'role': 'speaker', 'text': 'semi blocky', 'playerId': 'jNouuygdxoy87gYP6'}]",23,5.44,2_thin,11
892,5011,6_player,thick,round_1,1,H,APb85jFMnKTvtxB9Q,H,"[{'role': 'speaker', 'text': 'Looks a bit like a baby', 'playerId': '8EKHajAZMvmFinexJ'}]",25,5.011,6_thick,12
892,24747,6_player,thick,round_1,1,J,ASJgHR2N8wCgN32cu,J,"[{'role': 'speaker', 'text': 'A wide body, head facing straight ahead, one foot visible, seemingly facing to the right', 'playerId': 'YT2Nq7XZoMqoZoRX9'}, {'role': 'speaker', 'text': 'one triangular arm facing outwards', 'playerId': 'YT2Nq7XZoMqoZoRX9'}, {'role': 'speaker', 'text': 'The body is square-shaped', 'playerId': 'YT2Nq7XZoMqoZoRX9'}]",27,24.747,6_thick,13
892,3901,2_player,thick,round_6,0,H,Z2WAkYpWiXwuGcdME,C,"[{'role': 'speaker', 'text': 'limbles', 'playerId': 'R3cRgh4HmEtRsmQyp'}]",29,3.901,2_thick,14
892,12985,6_player,thin,round_6,1,L,vHHRDD5s36Ya2xGvS,L,"[{'role': 'speaker', 'text': 'Half standing to the right', 'playerId': 'R7ioWHKEJCBidQWRz'}]",31,12.985,6_thin,15
892,9886,2_player,thin,round_6,0,A,ajePseikJxYBmnFiL,I,"[{'role': 'speaker', 'text': 'kicking', 'playerId': 'mvTdk2anEmSmbacGF'}]",33,9.886,2_thin,16
892,1513,6_player,thick,round_6,1,E,C6NxFhmDQvNgE2P68,E,"[{'role': 'speaker', 'text': 'Bunny ears', 'playerId': 'CsbCqNrAHc5ueS2rd'}]",35,1.513,6_thick,17
892,12095,2_player,thin,round_6,1,B,byWRCj2bTz2Guefog,B,"[{'role': 'speaker', 'text': 'person is kneeled looking right, triangle arms wide, left shoe', 'playerId': 'XJrMGAcWFb5rBFLwQ'}]",37,12.095,2_thin,18
892,7654,2_player,thin,round_1,1,C,GGz5Zb58tHpG8X5z7,C,"[{'role': 'speaker', 'text': '2 arms out no legs', 'playerId': 'HfeucCnhyMQZNxJYH'}]",39,7.654,2_thin,19
892,11429,2_player,thick,round_1,1,F,McS8GHduqHkKFYD5o,F,"[{'role': 'speaker', 'text': 'sitting down as if reading a book with foot going to the left', 'playerId': 'qe6HAfu3ezEDCqbpT'}]",41,11.429,2_thick,20
892,7738,6_player,thin,round_1,1,E,dG226KpEbdnXwkPGx,E,"[{'role': 'speaker', 'text': 'Looks like an indian squatting', 'playerId': 'MRy5sG4H9RcBMfW2b'}, {'role': 'speaker', 'text': 'Two feathers in head', 'playerId': 'MRy5sG4H9RcBMfW2b'}, {'role': 'speaker', 'text': 'Box head slightly down', 'playerId': 'MRy5sG4H9RcBMfW2b'}]",43,7.738,6_thin,21
892,102880,2_player,thin,round_1,0,G,byWRCj2bTz2Guefog,F,"[{'role': 'speaker', 'text': 'this looks like a person half lay down and half sat up on their nose is balanced a square', 'playerId': 'AXLc5WsF9dMwS482A'}, {'role': 'speaker', 'text': 'the square is on the left and the person is facing towards the left', 'playerId': 'AXLc5WsF9dMwS482A'}, {'role': 'speaker', 'text': 'it has a triangle for a hat, which is slightly behind it', 'playerId': 'AXLc5WsF9dMwS482A'}, {'role': 'speaker', 'text': 'it looks like the person is semi lay down and propped up by their arm the arm is a triangle', 'playerId': 'AXLc5WsF9dMwS482A'}]",45,102.88,2_thin,22
892,3250,6_player,thick,round_6,1,C,FQmZmJts5MsgBFKCs,C,"[{'role': 'speaker', 'text': 'goalie', 'playerId': '4bzGCtgSy2NNk9Q5m'}]",47,3.25,6_thick,23
892,22729,6_player,thick,round_6,0,H,QG9fkFCXKj6g9mjR5,E,"[{'role': 'speaker', 'text': 'Body tucked in with leg to right', 'playerId': 'u3bWoHe66Wu9yh7ka'}, {'role': 'listener', 'text': 'Knees raised', 'playerId': '6dv6K8Q6C7Jm9oEpc'}]",49,22.729,6_thick,24
892,12100,6_player,thick,round_1,1,E,BPDJ8DfY2oJw6jGZn,E,"[{'role': 'speaker', 'text': 'One that is sitting down with something on his head', 'playerId': 'mv8wwWEYbFzbrrwmR'}, {'role': 'speaker', 'text': 'Facing right', 'playerId': 'mv8wwWEYbFzbrrwmR'}]",51,12.1,6_thick,25
892,8586,6_player,thick,round_1,1,F,5wn4MiopXyfXuTxG9,F,"[{'role': 'speaker', 'text': 'sitting down with leg stretch forward making angle 90', 'playerId': 'krufYfRwDYfYGxy2G'}]",53,8.586,6_thick,26
892,11697,2_player,thick,round_1,0,H,8rdFCKG2CvuTrLnAM,L,"[{'role': 'speaker', 'text': 'Looks like someone kneeling down without their arms or legs showing', 'playerId': 'sXCiFPWdDG3oRZb4u'}]",55,11.697,2_thick,27
892,4431,2_player,thin,round_6,0,A,byWRCj2bTz2Guefog,I,"[{'role': 'speaker', 'text': 'looks like a bird, kicking left foot up', 'playerId': 'XJrMGAcWFb5rBFLwQ'}]",57,4.431,2_thin,28
892,6214,2_player,thick,round_6,0,G,voSMQaG9H4nC4jy32,H,"[{'role': 'speaker', 'text': 'Not dancing guy', 'playerId': 'xCczn7ZDHtYRWQE6W'}]",59,6.214,2_thick,29
892,2583,2_player,thin,round_1,1,F,ajePseikJxYBmnFiL,F,"[{'role': 'speaker', 'text': 'he is sitting down with legs in front of him', 'playerId': 'AiCEjp8prCmGRkAok'}]",61,2.583,2_thin,30
892,73035,6_player,thick,round_6,0,B,5wn4MiopXyfXuTxG9,K,"[{'role': 'speaker', 'text': 'This is one of the smaller figures with one small limb extended forward and with a square and triangle on its head', 'playerId': 'HJoHFMvp6qPSD2pXk'}]",63,73.035,6_thick,31
892,6423,6_player,thin,round_6,0,H,E8n7PT7sEpCcbb7AD,J,"[{'role': 'speaker', 'text': 'tombstone', 'playerId': 'NauJW3wAPr54G6iB9'}]",65,6.423,6_thin,32
892,14433,2_player,thick,round_6,1,A,8rdFCKG2CvuTrLnAM,A,"[{'role': 'speaker', 'text': 'guy with head backwards to right and one leg left', 'playerId': 'sXCiFPWdDG3oRZb4u'}]",67,14.433,2_thick,33
892,8818,6_player,thin,round_1,1,C,dh6tkArXHwNp8Aru4,C,"[{'role': 'speaker', 'text': 'FALLING BACK', 'playerId': 'bPKaFxCT9xHgbCHWZ'}, {'role': 'speaker', 'text': 'ARMS IN THE AIR', 'playerId': 'bPKaFxCT9xHgbCHWZ'}]",69,8.818,6_thin,34
892,7096,6_player,thin,round_6,1,D,AdiA5JEZBKJ4F5r4i,D,"[{'role': 'speaker', 'text': 'Facing left Asking for something Feet pointing left', 'playerId': 'DnsCNZv6g42s9Ruci'}]",71,7.096,6_thin,35
892,2785,2_player,thick,round_6,1,H,f69G9D9Q2uiv2MCJn,H,"[{'role': 'speaker', 'text': 'no arms or legs', 'playerId': 'KhyGCb79wtn4KpfMc'}]",73,2.785,2_thick,36
892,6675,2_player,thin,round_1,0,B,xPDpppkjxby6SWWQE,C,"[{'role': 'speaker', 'text': ""it's the one u said was the angel"", 'playerId': 'XRm49YNiQZ82knkDb'}]",75,6.675,2_thin,37
892,60966,6_player,thick,round_1,1,G,G74GhYGrsaxrsfYxf,G,"[{'role': 'speaker', 'text': 'square on top resting on what looks like a big tie cravatte', 'playerId': 'G7t4KfQdMhBApqMvT'}, {'role': 'speaker', 'text': 'the bottom of the shape is like a sock that leaning to the left', 'playerId': 'G7t4KfQdMhBApqMvT'}, {'role': 'speaker', 'text': 'that sock is connected to a small triangle to the right', 'playerId': 'G7t4KfQdMhBApqMvT'}]",77,60.966,6_thick,38
892,4100,2_player,thick,round_6,1,E,xXhypRAC7tRGakzHn,E,"[{'role': 'speaker', 'text': 'mountain top', 'playerId': 'LK6nCiq4mWKCExxjc'}]",79,4.1,2_thick,39
892,5419,6_player,thin,round_6,1,C,GfdodQMJHhNodveqQ,C,"[{'role': 'speaker', 'text': 'falling to the left with arms up in the air', 'playerId': 'mJoMeCNLNBvXsdrNr'}]",81,5.419,6_thin,40
892,20874,6_player,thin,round_1,1,D,w3iX3WeXrGQDWqzwf,D,"[{'role': 'speaker', 'text': '""diamond"" at center top', 'playerId': 'PbHbMMmhuqT4KcqhB'}, {'role': 'speaker', 'text': 'rectangular middle', 'playerId': 'PbHbMMmhuqT4KcqhB'}, {'role': 'speaker', 'text': '""toes"" pointed to the left', 'playerId': 'PbHbMMmhuqT4KcqhB'}, {'role': 'speaker', 'text': 'holding something on the left', 'playerId': 'PbHbMMmhuqT4KcqhB'}, {'role': 'speaker', 'text': 'to the left is likes a square on top of a partially covered triangle', 'playerId': 'PbHbMMmhuqT4KcqhB'}, {'role': 'speaker', 'text': '*like', 'playerId': 'PbHbMMmhuqT4KcqhB'}]",83,20.874,6_thin,41
892,8363,2_player,thin,round_6,1,B,jogDrQkpEKFNKDtfk,B,"[{'role': 'speaker', 'text': 'on knees arms out wide', 'playerId': '5gj4Z6SqKe5ZjzcBf'}]",85,8.363,2_thin,42
892,5481,2_player,thin,round_6,0,J,5pxA8N5MZQKx6CQNK,F,"[{'role': 'speaker', 'text': 'barely picked', 'playerId': 'wS6Wk6zib8zYhzcim'}, {'role': 'speaker', 'text': '1 square head', 'playerId': 'wS6Wk6zib8zYhzcim'}]",87,5.481,2_thin,43
892,32777,6_player,thick,round_1,0,D,TNRYprBpNcgCrb2HF,A,"[{'role': 'listener', 'text': 'does the image look like a person sitting or standing', 'playerId': 'G4HK8nC7P4gF4WNYv'}, {'role': 'listener', 'text': 'which way are the arms facing', 'playerId': 'MzEPr8SWgujDFLbip'}, {'role': 'listener', 'text': 'arms facing left or right', 'playerId': 'YR4FANKP3HF94ob8Y'}, {'role': 'speaker', 'text': 'Looks like the person is standing and with arms straight out to the left when facing the picture', 'playerId': 'ZBAXeNd9hoDrFHWhf'}]",89,32.777,6_thick,44
892,6555,2_player,thick,round_6,0,H,Ccv6vkdmTr6cnNfC5,G,"[{'role': 'speaker', 'text': ""May the Lord open! Handmaid's Tale"", 'playerId': 'osdJLtm3pRz9sdzmK'}]",91,6.555,2_thick,45
892,5228,2_player,thick,round_6,0,G,FmuScBvZuEj2zegE2,A,"[{'role': 'speaker', 'text': 'body up', 'playerId': 'pyBP4wTvPc2uhWfZ9'}]",93,5.228,2_thick,46
892,8524,6_player,thin,round_6,1,F,78pdRXrYqcWKaNMsA,F,"[{'role': 'speaker', 'text': 'sitting left legs drawn up', 'playerId': 'i7JHRaSobHRNAbiut'}]",95,8.524,6_thin,47
892,57510,6_player,thin,round_6,0,G,tGuW7nukBHY72yfXn,F,"[{'role': 'speaker', 'text': 'Slumped, left-facing, weird bunny man with triangle hand on right side', 'playerId': 'qatayjkTEqMM6STZS'}, {'role': 'speaker', 'text': 'Square For left ear and triangle for right-facing ear', 'playerId': 'qatayjkTEqMM6STZS'}, {'role': 'speaker', 'text': ""It's that weird slumped shape facing left that looks nothing like a man"", 'playerId': 'qatayjkTEqMM6STZS'}]",97,57.51,6_thin,48
892,52338,6_player,thick,round_6,0,E,6ikro5aNu98qHGGFL,G,"[{'role': 'speaker', 'text': 'triangle body on top diamond and 2 triangles facing right', 'playerId': 'Mm4ut74JJKd55WcMT'}]",99,52.338,6_thick,49
892,2345,2_player,thin,round_6,1,I,mfHF5dsRBFvoJKmv7,I,"[{'role': 'speaker', 'text': 'ice skater', 'playerId': 'RBMaXWoaFLp3JrbMZ'}]",101,2.345,2_thin,50
892,14551,2_player,thick,round_1,0,H,XaYo7mGCsyJKW3w4Z,J,"[{'role': 'speaker', 'text': 'candle with a triangle at bottom pointed right', 'playerId': 'NYD7GMoHm3TagmyTN'}]",103,14.551,2_thick,51
892,8123,2_player,thin,round_1,1,I,byWRCj2bTz2Guefog,I,"[{'role': 'speaker', 'text': 'this looks like a ballet dancer with a leg stretched back, but the leg is a triangle and the head is a square', 'playerId': 'AXLc5WsF9dMwS482A'}, {'role': 'speaker', 'text': 'the chest is two triangles on the left', 'playerId': 'AXLc5WsF9dMwS482A'}]",105,8.123,2_thin,52
892,3501,6_player,thick,round_6,1,K,xxh6EZ5ESMvTDboLx,K,"[{'role': 'speaker', 'text': 'knelt holding plate to right', 'playerId': 'ETWC7GktmiQ8Fmtef'}]",107,3.501,6_thick,53
892,7872,2_player,thick,round_1,1,F,voSMQaG9H4nC4jy32,F,"[{'role': 'speaker', 'text': 'It looks like a person sitting on their butt', 'playerId': 'xCczn7ZDHtYRWQE6W'}, {'role': 'speaker', 'text': 'facing left', 'playerId': 'xCczn7ZDHtYRWQE6W'}]",109,7.872,2_thick,54
892,22335,2_player,thin,round_6,0,G,tac8f7dPdRJLBrSMh,L,"[{'role': 'speaker', 'text': ""standing on the ballet dancers head I'm rubbish at guessing and describing this one!!"", 'playerId': 'K55iXDsX2B8hnentx'}, {'role': 'speaker', 'text': 'or should i say kneeling about the ballet dancer', 'playerId': 'K55iXDsX2B8hnentx'}]",111,22.335,2_thin,55
892,12369,6_player,thin,round_1,1,A,vfBNc7APPeQqXwJep,A,"[{'role': 'speaker', 'text': 'it has what looks like two legs on the bottom', 'playerId': 'AbDh35xzSqzppDyPx'}, {'role': 'speaker', 'text': 'a square at the top right', 'playerId': 'AbDh35xzSqzppDyPx'}, {'role': 'speaker', 'text': 'and a trapezoid at the top left', 'playerId': 'AbDh35xzSqzppDyPx'}]",113,12.369,6_thin,56
892,9700,6_player,thin,round_1,0,L,dG226KpEbdnXwkPGx,K,"[{'role': 'speaker', 'text': 'Looks like a person with bowl and kneeling', 'playerId': 'MRy5sG4H9RcBMfW2b'}, {'role': 'speaker', 'text': 'Legs bent', 'playerId': 'MRy5sG4H9RcBMfW2b'}]",115,9.7,6_thin,57
892,6251,6_player,thin,round_1,1,D,Nh8nE8Qa4C3BkbhD6,D,"[{'role': 'speaker', 'text': ""you're doing great here this one looks like a a waiter holding a towel, on his arm"", 'playerId': 'kGFgXyvd4DGKWJytw'}, {'role': 'speaker', 'text': 'looking left', 'playerId': 'kGFgXyvd4DGKWJytw'}]",117,6.251,6_thin,58
892,7678,6_player,thin,round_6,1,J,4jb479ZcxyntN9bzn,J,"[{'role': 'speaker', 'text': 'square with a chunk missing', 'playerId': 'YbvfqqB8H6sm4ud2t'}]",119,7.678,6_thin,59
892,13998,6_player,thick,round_6,0,H,iHNnNCnSAx2TYjDhf,C,"[{'role': 'speaker', 'text': '7', 'playerId': '2ub9Fg5YrCita2F2y'}]",121,13.998,6_thick,60
892,8451,6_player,thick,round_6,0,I,QG9fkFCXKj6g9mjR5,A,"[{'role': 'speaker', 'text': 'Dancing pose , humanlike not animal', 'playerId': 'u3bWoHe66Wu9yh7ka'}]",123,8.451,6_thick,61
892,44606,6_player,thin,round_1,1,J,dh6tkArXHwNp8Aru4,J,"[{'role': 'speaker', 'text': 'SUNDIAL', 'playerId': 'bPKaFxCT9xHgbCHWZ'}, {'role': 'speaker', 'text': 'GARDEN PLANTER WITH SUNDIAL ON TOP', 'playerId': 'bPKaFxCT9xHgbCHWZ'}, {'role': 'speaker', 'text': 'FLAT ON LEFT, TWO POINTS TO RIGHT AND DIAMOND HEAD', 'playerId': 'bPKaFxCT9xHgbCHWZ'}]",125,44.606,6_thin,62
892,21377,6_player,thick,round_1,1,L,QkKavPsKXNH5uJzrs,L,"[{'role': 'speaker', 'text': 'this one looks like a person about to keel while holding their arms to the right', 'playerId': 'ySkkTvw6MWq2jN8sB'}, {'role': 'speaker', 'text': 'the bottom ""legs"" are together and bent to the right', 'playerId': 'ySkkTvw6MWq2jN8sB'}, {'role': 'speaker', 'text': 'the back is straight', 'playerId': 'ySkkTvw6MWq2jN8sB'}, {'role': 'listener', 'text': 'how about the arms', 'playerId': '45SedEFMPvXQwJr5u'}, {'role': 'speaker', 'text': 'the arms fe right', 'playerId': 'ySkkTvw6MWq2jN8sB'}]",127,21.377,6_thick,63
892,5814,2_player,thick,round_6,0,F,JCq6bt8bjpBggFPyM,A,"[{'role': 'speaker', 'text': 'drunk guy', 'playerId': '7KhipcCnuF2SDDKvi'}]",129,5.814,2_thick,64
889,34833,2_player,thick,round_1,1,I,XDoay5WJnvL23rCdz,I,"[{'role': 'speaker', 'text': 'looks like someone stood on one leg, other leg is pointing to the right and is level their arms are pointing to our left and can see on arm above the other, like a judo kick', 'playerId': '8HW5HPk6BcWhLNEud'}]",3,34.833,2_thick,1
889,38517,6_player,thin,round_1,0,K,Nh8nE8Qa4C3BkbhD6,B,"[{'role': 'speaker', 'text': 'appears to be kneeling, , head straight,', 'playerId': 'kGFgXyvd4DGKWJytw'}, {'role': 'speaker', 'text': 'i get the sense they are in prayer position looking to the right', 'playerId': 'kGFgXyvd4DGKWJytw'}, {'role': 'speaker', 'text': 'triangle Up on the back', 'playerId': 'kGFgXyvd4DGKWJytw'}]",5,38.517,6_thin,2
889,11427,6_player,thin,round_6,1,C,6ENiBxty3sZRCqqCy,C,"[{'role': 'speaker', 'text': 'Ghost one', 'playerId': 'EgTDCTTrJr8uxt6YW'}]",7,11.427,6_thin,3
889,12828,2_player,thick,round_6,1,F,FmuScBvZuEj2zegE2,F,"[{'role': 'speaker', 'text': 'lay down no hat', 'playerId': 'pyBP4wTvPc2uhWfZ9'}]",9,12.828,2_thick,4
